submission_id,QUD,RT,age,both_infos,education,experiment_id,gender,ingroup_info_a,languages,option1,option2,question,response,startDate,startTime,trial_name,trial_number
3142,NA,NA,21,NA,Abitur,283,Weiblich,NA,Deutsch,NA,NA,NA,3,Fri Aug 27 2021 16:53:45 GMT+0200 (CEST),1630076025484,topic_choice,1
3142,NA,NA,21,NA,Abitur,283,Weiblich,NA,Deutsch,NA,NA,NA,4,Fri Aug 27 2021 16:53:45 GMT+0200 (CEST),1630076025484,statement_rating,1
3142,NA,NA,21,false,Abitur,283,Weiblich,false,Deutsch,NA,NA,NA,next,Fri Aug 27 2021 16:53:45 GMT+0200 (CEST),1630076025484,dilemma_decision1,1
3142,NA,NA,21,false,Abitur,283,Weiblich,false,Deutsch,NA,NA,NA,next,Fri Aug 27 2021 16:53:45 GMT+0200 (CEST),1630076025484,dilemma_decision1,2
3142,NA,NA,21,false,Abitur,283,Weiblich,false,Deutsch,NA,NA,NA,next,Fri Aug 27 2021 16:53:45 GMT+0200 (CEST),1630076025484,dilemma_decision1,3
3142,NA,NA,21,false,Abitur,283,Weiblich,false,Deutsch,NA,NA,NA,4,Fri Aug 27 2021 16:53:45 GMT+0200 (CEST),1630076025484,dilemma_decision1,4
3142,NA,NA,21,false,Abitur,283,Weiblich,false,Deutsch,NA,NA,NA,-3,Fri Aug 27 2021 16:53:45 GMT+0200 (CEST),1630076025484,dilemma_decision1,5
3142,NA,NA,21,false,Abitur,283,Weiblich,false,Deutsch,NA,NA,NA,next,Fri Aug 27 2021 16:53:45 GMT+0200 (CEST),1630076025484,dilemma_decision2,1
3142,NA,NA,21,false,Abitur,283,Weiblich,false,Deutsch,NA,NA,NA,next,Fri Aug 27 2021 16:53:45 GMT+0200 (CEST),1630076025484,dilemma_decision2,2
3142,NA,NA,21,false,Abitur,283,Weiblich,false,Deutsch,NA,NA,NA,next,Fri Aug 27 2021 16:53:45 GMT+0200 (CEST),1630076025484,dilemma_decision2,3
3142,NA,NA,21,false,Abitur,283,Weiblich,false,Deutsch,NA,NA,NA,2,Fri Aug 27 2021 16:53:45 GMT+0200 (CEST),1630076025484,dilemma_decision2,4
3142,NA,NA,21,false,Abitur,283,Weiblich,false,Deutsch,NA,NA,NA,-2,Fri Aug 27 2021 16:53:45 GMT+0200 (CEST),1630076025484,dilemma_decision2,5
3142,,5821,21,NA,Abitur,283,Weiblich,NA,Deutsch,Du musstest immer so schnell wie möglich antworten.,"Es ist irrelevant, wie lange du für deine Antworten benötigt hast.",Welche dieser Behauptungen über dieses Experiment ist wahr?,"Es ist irrelevant, wie lange du für deine Antworten benötigt hast.",Fri Aug 27 2021 16:53:45 GMT+0200 (CEST),1630076025484,understanding_check,1
3142,,2831,21,NA,Abitur,283,Weiblich,NA,Deutsch,Anfangs wurden dir mehrere Themen zur Auswahl gestellt.,Du konntest dir ein Dilemma aussuchen.,Welche dieser Behauptungen über dieses Experiment ist wahr?,Anfangs wurden dir mehrere Themen zur Auswahl gestellt.,Fri Aug 27 2021 16:53:45 GMT+0200 (CEST),1630076025484,understanding_check,2
3142,,2055,21,NA,Abitur,283,Weiblich,NA,Deutsch,Für die Durchführung dieses Experiments erhälst du eine Aufwandsentschädigung oder VP Stunden.,"Wir können dir leider keine Aufwandsentschädigung oder VP Stunden anbieten, sind dir aber sehr dankbar.",Welche dieser Behauptungen über dieses Experiment ist wahr?,"Wir können dir leider keine Aufwandsentschädigung oder VP Stunden anbieten, sind dir aber sehr dankbar.",Fri Aug 27 2021 16:53:45 GMT+0200 (CEST),1630076025484,understanding_check,3
3142,NA,NA,21,NA,Abitur,283,Weiblich,NA,Deutsch,NA,NA,NA,2,Fri Aug 27 2021 16:53:45 GMT+0200 (CEST),1630076025484,group_ident,1
3142,NA,NA,21,NA,Abitur,283,Weiblich,NA,Deutsch,NA,NA,NA,-3,Fri Aug 27 2021 16:53:45 GMT+0200 (CEST),1630076025484,group_ident,2
3141,NA,NA,21,NA,Abitur,283,Weiblich,NA,Deutsch,NA,NA,NA,7,Fri Aug 27 2021 16:47:34 GMT+0200 (CEST),1630075654426,topic_choice,1
3141,NA,NA,21,NA,Abitur,283,Weiblich,NA,Deutsch,NA,NA,NA,5,Fri Aug 27 2021 16:47:34 GMT+0200 (CEST),1630075654426,statement_rating,1
3141,NA,NA,21,true,Abitur,283,Weiblich,false,Deutsch,NA,NA,NA,next,Fri Aug 27 2021 16:47:34 GMT+0200 (CEST),1630075654426,dilemma_decision2,1
3141,NA,NA,21,true,Abitur,283,Weiblich,false,Deutsch,NA,NA,NA,next,Fri Aug 27 2021 16:47:34 GMT+0200 (CEST),1630075654426,dilemma_decision2,2
3141,NA,NA,21,true,Abitur,283,Weiblich,false,Deutsch,NA,NA,NA,next,Fri Aug 27 2021 16:47:34 GMT+0200 (CEST),1630075654426,dilemma_decision2,3
3141,NA,NA,21,true,Abitur,283,Weiblich,false,Deutsch,NA,NA,NA,2,Fri Aug 27 2021 16:47:34 GMT+0200 (CEST),1630075654426,dilemma_decision2,4
3141,NA,NA,21,true,Abitur,283,Weiblich,false,Deutsch,NA,NA,NA,-1,Fri Aug 27 2021 16:47:34 GMT+0200 (CEST),1630075654426,dilemma_decision2,5
3141,NA,NA,21,true,Abitur,283,Weiblich,true,Deutsch,NA,NA,NA,next,Fri Aug 27 2021 16:47:34 GMT+0200 (CEST),1630075654426,dilemma_decision1,1
3141,NA,NA,21,true,Abitur,283,Weiblich,true,Deutsch,NA,NA,NA,next,Fri Aug 27 2021 16:47:34 GMT+0200 (CEST),1630075654426,dilemma_decision1,2
3141,NA,NA,21,true,Abitur,283,Weiblich,true,Deutsch,NA,NA,NA,next,Fri Aug 27 2021 16:47:34 GMT+0200 (CEST),1630075654426,dilemma_decision1,3
3141,NA,NA,21,true,Abitur,283,Weiblich,true,Deutsch,NA,NA,NA,4,Fri Aug 27 2021 16:47:34 GMT+0200 (CEST),1630075654426,dilemma_decision1,4
3141,NA,NA,21,true,Abitur,283,Weiblich,true,Deutsch,NA,NA,NA,-3,Fri Aug 27 2021 16:47:34 GMT+0200 (CEST),1630075654426,dilemma_decision1,5
3141,,14386,21,NA,Abitur,283,Weiblich,NA,Deutsch,Du musstest immer so schnell wie möglich antworten.,"Es ist irrelevant, wie lange du für deine Antworten benötigt hast.",Welche dieser Behauptungen über dieses Experiment ist wahr?,Du musstest immer so schnell wie möglich antworten.,Fri Aug 27 2021 16:47:34 GMT+0200 (CEST),1630075654426,understanding_check,1
3141,,7900,21,NA,Abitur,283,Weiblich,NA,Deutsch,Anfangs wurden dir mehrere Themen zur Auswahl gestellt.,Du konntest dir ein Dilemma aussuchen.,Welche dieser Behauptungen über dieses Experiment ist wahr?,Anfangs wurden dir mehrere Themen zur Auswahl gestellt.,Fri Aug 27 2021 16:47:34 GMT+0200 (CEST),1630075654426,understanding_check,2
3141,,7191,21,NA,Abitur,283,Weiblich,NA,Deutsch,Für die Durchführung dieses Experiments erhälst du eine Aufwandsentschädigung oder VP Stunden.,"Wir können dir leider keine Aufwandsentschädigung oder VP Stunden anbieten, sind dir aber sehr dankbar.",Welche dieser Behauptungen über dieses Experiment ist wahr?,"Wir können dir leider keine Aufwandsentschädigung oder VP Stunden anbieten, sind dir aber sehr dankbar.",Fri Aug 27 2021 16:47:34 GMT+0200 (CEST),1630075654426,understanding_check,3
3141,NA,NA,21,NA,Abitur,283,Weiblich,NA,Deutsch,NA,NA,NA,3,Fri Aug 27 2021 16:47:34 GMT+0200 (CEST),1630075654426,group_ident,1
3141,NA,NA,21,NA,Abitur,283,Weiblich,NA,Deutsch,NA,NA,NA,2,Fri Aug 27 2021 16:47:34 GMT+0200 (CEST),1630075654426,group_ident,2
3064,NA,NA,60,NA,Universitärer Abschluss,283,Weiblich,NA,Deutsch,NA,NA,NA,3,Fri Aug 27 2021 10:46:13 GMT+0200 (CEST),1630053973022,topic_choice,1
3064,NA,NA,60,NA,Universitärer Abschluss,283,Weiblich,NA,Deutsch,NA,NA,NA,3,Fri Aug 27 2021 10:46:13 GMT+0200 (CEST),1630053973022,statement_rating,1
3064,NA,NA,60,true,Universitärer Abschluss,283,Weiblich,false,Deutsch,NA,NA,NA,next,Fri Aug 27 2021 10:46:13 GMT+0200 (CEST),1630053973022,dilemma_decision1,1
3064,NA,NA,60,true,Universitärer Abschluss,283,Weiblich,false,Deutsch,NA,NA,NA,next,Fri Aug 27 2021 10:46:13 GMT+0200 (CEST),1630053973022,dilemma_decision1,2
3064,NA,NA,60,true,Universitärer Abschluss,283,Weiblich,false,Deutsch,NA,NA,NA,next,Fri Aug 27 2021 10:46:13 GMT+0200 (CEST),1630053973022,dilemma_decision1,3
3064,NA,NA,60,true,Universitärer Abschluss,283,Weiblich,false,Deutsch,NA,NA,NA,5,Fri Aug 27 2021 10:46:13 GMT+0200 (CEST),1630053973022,dilemma_decision1,4
3064,NA,NA,60,true,Universitärer Abschluss,283,Weiblich,false,Deutsch,NA,NA,NA,-2,Fri Aug 27 2021 10:46:13 GMT+0200 (CEST),1630053973022,dilemma_decision1,5
3064,NA,NA,60,true,Universitärer Abschluss,283,Weiblich,false,Deutsch,NA,NA,NA,next,Fri Aug 27 2021 10:46:13 GMT+0200 (CEST),1630053973022,dilemma_decision2,1
3064,NA,NA,60,true,Universitärer Abschluss,283,Weiblich,false,Deutsch,NA,NA,NA,next,Fri Aug 27 2021 10:46:13 GMT+0200 (CEST),1630053973022,dilemma_decision2,2
3064,NA,NA,60,true,Universitärer Abschluss,283,Weiblich,false,Deutsch,NA,NA,NA,next,Fri Aug 27 2021 10:46:13 GMT+0200 (CEST),1630053973022,dilemma_decision2,3
3064,NA,NA,60,true,Universitärer Abschluss,283,Weiblich,false,Deutsch,NA,NA,NA,2,Fri Aug 27 2021 10:46:13 GMT+0200 (CEST),1630053973022,dilemma_decision2,4
3064,NA,NA,60,true,Universitärer Abschluss,283,Weiblich,false,Deutsch,NA,NA,NA,-2,Fri Aug 27 2021 10:46:13 GMT+0200 (CEST),1630053973022,dilemma_decision2,5
3064,,91310,60,NA,Universitärer Abschluss,283,Weiblich,NA,Deutsch,Du musstest immer so schnell wie möglich antworten.,"Es ist irrelevant, wie lange du für deine Antworten benötigt hast.",Welche dieser Behauptungen über dieses Experiment ist wahr?,"Es ist irrelevant, wie lange du für deine Antworten benötigt hast.",Fri Aug 27 2021 10:46:13 GMT+0200 (CEST),1630053973022,understanding_check,1
3064,,9612,60,NA,Universitärer Abschluss,283,Weiblich,NA,Deutsch,Anfangs wurden dir mehrere Themen zur Auswahl gestellt.,Du konntest dir ein Dilemma aussuchen.,Welche dieser Behauptungen über dieses Experiment ist wahr?,Anfangs wurden dir mehrere Themen zur Auswahl gestellt.,Fri Aug 27 2021 10:46:13 GMT+0200 (CEST),1630053973022,understanding_check,2
3064,,12663,60,NA,Universitärer Abschluss,283,Weiblich,NA,Deutsch,Für die Durchführung dieses Experiments erhälst du eine Aufwandsentschädigung oder VP Stunden.,"Wir können dir leider keine Aufwandsentschädigung oder VP Stunden anbieten, sind dir aber sehr dankbar.",Welche dieser Behauptungen über dieses Experiment ist wahr?,"Wir können dir leider keine Aufwandsentschädigung oder VP Stunden anbieten, sind dir aber sehr dankbar.",Fri Aug 27 2021 10:46:13 GMT+0200 (CEST),1630053973022,understanding_check,3
3064,NA,NA,60,NA,Universitärer Abschluss,283,Weiblich,NA,Deutsch,NA,NA,NA,2,Fri Aug 27 2021 10:46:13 GMT+0200 (CEST),1630053973022,group_ident,1
3064,NA,NA,60,NA,Universitärer Abschluss,283,Weiblich,NA,Deutsch,NA,NA,NA,-2,Fri Aug 27 2021 10:46:13 GMT+0200 (CEST),1630053973022,group_ident,2
3063,NA,NA,60,NA,Universitärer Abschluss,283,Männlich,NA,Deutsch,NA,NA,NA,1,Fri Aug 27 2021 10:51:35 GMT+0200 (Mitteleuropäische Sommerzeit),1630054295391,topic_choice,1
3063,NA,NA,60,NA,Universitärer Abschluss,283,Männlich,NA,Deutsch,NA,NA,NA,5,Fri Aug 27 2021 10:51:35 GMT+0200 (Mitteleuropäische Sommerzeit),1630054295391,statement_rating,1
3063,NA,NA,60,true,Universitärer Abschluss,283,Männlich,true,Deutsch,NA,NA,NA,next,Fri Aug 27 2021 10:51:35 GMT+0200 (Mitteleuropäische Sommerzeit),1630054295391,dilemma_decision1,1
3063,NA,NA,60,true,Universitärer Abschluss,283,Männlich,true,Deutsch,NA,NA,NA,next,Fri Aug 27 2021 10:51:35 GMT+0200 (Mitteleuropäische Sommerzeit),1630054295391,dilemma_decision1,2
3063,NA,NA,60,true,Universitärer Abschluss,283,Männlich,true,Deutsch,NA,NA,NA,next,Fri Aug 27 2021 10:51:35 GMT+0200 (Mitteleuropäische Sommerzeit),1630054295391,dilemma_decision1,3
3063,NA,NA,60,true,Universitärer Abschluss,283,Männlich,true,Deutsch,NA,NA,NA,5,Fri Aug 27 2021 10:51:35 GMT+0200 (Mitteleuropäische Sommerzeit),1630054295391,dilemma_decision1,4
3063,NA,NA,60,true,Universitärer Abschluss,283,Männlich,true,Deutsch,NA,NA,NA,1,Fri Aug 27 2021 10:51:35 GMT+0200 (Mitteleuropäische Sommerzeit),1630054295391,dilemma_decision1,5
3063,NA,NA,60,true,Universitärer Abschluss,283,Männlich,false,Deutsch,NA,NA,NA,next,Fri Aug 27 2021 10:51:35 GMT+0200 (Mitteleuropäische Sommerzeit),1630054295391,dilemma_decision2,1
3063,NA,NA,60,true,Universitärer Abschluss,283,Männlich,false,Deutsch,NA,NA,NA,next,Fri Aug 27 2021 10:51:35 GMT+0200 (Mitteleuropäische Sommerzeit),1630054295391,dilemma_decision2,2
3063,NA,NA,60,true,Universitärer Abschluss,283,Männlich,false,Deutsch,NA,NA,NA,next,Fri Aug 27 2021 10:51:35 GMT+0200 (Mitteleuropäische Sommerzeit),1630054295391,dilemma_decision2,3
3063,NA,NA,60,true,Universitärer Abschluss,283,Männlich,false,Deutsch,NA,NA,NA,1,Fri Aug 27 2021 10:51:35 GMT+0200 (Mitteleuropäische Sommerzeit),1630054295391,dilemma_decision2,4
3063,NA,NA,60,true,Universitärer Abschluss,283,Männlich,false,Deutsch,NA,NA,NA,2,Fri Aug 27 2021 10:51:35 GMT+0200 (Mitteleuropäische Sommerzeit),1630054295391,dilemma_decision2,5
3063,,15700,60,NA,Universitärer Abschluss,283,Männlich,NA,Deutsch,Du musstest immer so schnell wie möglich antworten.,"Es ist irrelevant, wie lange du für deine Antworten benötigt hast.",Welche dieser Behauptungen über dieses Experiment ist wahr?,"Es ist irrelevant, wie lange du für deine Antworten benötigt hast.",Fri Aug 27 2021 10:51:35 GMT+0200 (Mitteleuropäische Sommerzeit),1630054295391,understanding_check,1
3063,,7929,60,NA,Universitärer Abschluss,283,Männlich,NA,Deutsch,Anfangs wurden dir mehrere Themen zur Auswahl gestellt.,Du konntest dir ein Dilemma aussuchen.,Welche dieser Behauptungen über dieses Experiment ist wahr?,Anfangs wurden dir mehrere Themen zur Auswahl gestellt.,Fri Aug 27 2021 10:51:35 GMT+0200 (Mitteleuropäische Sommerzeit),1630054295391,understanding_check,2
3063,,10037,60,NA,Universitärer Abschluss,283,Männlich,NA,Deutsch,Für die Durchführung dieses Experiments erhälst du eine Aufwandsentschädigung oder VP Stunden.,"Wir können dir leider keine Aufwandsentschädigung oder VP Stunden anbieten, sind dir aber sehr dankbar.",Welche dieser Behauptungen über dieses Experiment ist wahr?,"Wir können dir leider keine Aufwandsentschädigung oder VP Stunden anbieten, sind dir aber sehr dankbar.",Fri Aug 27 2021 10:51:35 GMT+0200 (Mitteleuropäische Sommerzeit),1630054295391,understanding_check,3
3063,NA,NA,60,NA,Universitärer Abschluss,283,Männlich,NA,Deutsch,NA,NA,NA,2,Fri Aug 27 2021 10:51:35 GMT+0200 (Mitteleuropäische Sommerzeit),1630054295391,group_ident,1
3063,NA,NA,60,NA,Universitärer Abschluss,283,Männlich,NA,Deutsch,NA,NA,NA,-2,Fri Aug 27 2021 10:51:35 GMT+0200 (Mitteleuropäische Sommerzeit),1630054295391,group_ident,2
3043,NA,NA,22,NA,Abitur,283,Männlich,NA,Deutsch,NA,NA,NA,2,Thu Aug 26 2021 20:21:42 GMT+0200 (CEST),1630002102969,topic_choice,1
3043,NA,NA,22,NA,Abitur,283,Männlich,NA,Deutsch,NA,NA,NA,-5,Thu Aug 26 2021 20:21:42 GMT+0200 (CEST),1630002102969,statement_rating,1
3043,NA,NA,22,false,Abitur,283,Männlich,false,Deutsch,NA,NA,NA,next,Thu Aug 26 2021 20:21:42 GMT+0200 (CEST),1630002102969,dilemma_decision2,1
3043,NA,NA,22,false,Abitur,283,Männlich,false,Deutsch,NA,NA,NA,next,Thu Aug 26 2021 20:21:42 GMT+0200 (CEST),1630002102969,dilemma_decision2,2
3043,NA,NA,22,false,Abitur,283,Männlich,false,Deutsch,NA,NA,NA,next,Thu Aug 26 2021 20:21:42 GMT+0200 (CEST),1630002102969,dilemma_decision2,3
3043,NA,NA,22,false,Abitur,283,Männlich,false,Deutsch,NA,NA,NA,3,Thu Aug 26 2021 20:21:42 GMT+0200 (CEST),1630002102969,dilemma_decision2,4
3043,NA,NA,22,false,Abitur,283,Männlich,false,Deutsch,NA,NA,NA,-1,Thu Aug 26 2021 20:21:42 GMT+0200 (CEST),1630002102969,dilemma_decision2,5
3043,NA,NA,22,false,Abitur,283,Männlich,true,Deutsch,NA,NA,NA,next,Thu Aug 26 2021 20:21:42 GMT+0200 (CEST),1630002102969,dilemma_decision1,1
3043,NA,NA,22,false,Abitur,283,Männlich,true,Deutsch,NA,NA,NA,next,Thu Aug 26 2021 20:21:42 GMT+0200 (CEST),1630002102969,dilemma_decision1,2
3043,NA,NA,22,false,Abitur,283,Männlich,true,Deutsch,NA,NA,NA,next,Thu Aug 26 2021 20:21:42 GMT+0200 (CEST),1630002102969,dilemma_decision1,3
3043,NA,NA,22,false,Abitur,283,Männlich,true,Deutsch,NA,NA,NA,2,Thu Aug 26 2021 20:21:42 GMT+0200 (CEST),1630002102969,dilemma_decision1,4
3043,NA,NA,22,false,Abitur,283,Männlich,true,Deutsch,NA,NA,NA,2,Thu Aug 26 2021 20:21:42 GMT+0200 (CEST),1630002102969,dilemma_decision1,5
3043,,14154,22,NA,Abitur,283,Männlich,NA,Deutsch,Du musstest immer so schnell wie möglich antworten.,"Es ist irrelevant, wie lange du für deine Antworten benötigt hast.",Welche dieser Behauptungen über dieses Experiment ist wahr?,Du musstest immer so schnell wie möglich antworten.,Thu Aug 26 2021 20:21:42 GMT+0200 (CEST),1630002102969,understanding_check,1
3043,,15013,22,NA,Abitur,283,Männlich,NA,Deutsch,Anfangs wurden dir mehrere Themen zur Auswahl gestellt.,Du konntest dir ein Dilemma aussuchen.,Welche dieser Behauptungen über dieses Experiment ist wahr?,Anfangs wurden dir mehrere Themen zur Auswahl gestellt.,Thu Aug 26 2021 20:21:42 GMT+0200 (CEST),1630002102969,understanding_check,2
3043,,9708,22,NA,Abitur,283,Männlich,NA,Deutsch,Für die Durchführung dieses Experiments erhälst du eine Aufwandsentschädigung oder VP Stunden.,"Wir können dir leider keine Aufwandsentschädigung oder VP Stunden anbieten, sind dir aber sehr dankbar.",Welche dieser Behauptungen über dieses Experiment ist wahr?,"Wir können dir leider keine Aufwandsentschädigung oder VP Stunden anbieten, sind dir aber sehr dankbar.",Thu Aug 26 2021 20:21:42 GMT+0200 (CEST),1630002102969,understanding_check,3
3043,NA,NA,22,NA,Abitur,283,Männlich,NA,Deutsch,NA,NA,NA,-3,Thu Aug 26 2021 20:21:42 GMT+0200 (CEST),1630002102969,group_ident,1
3043,NA,NA,22,NA,Abitur,283,Männlich,NA,Deutsch,NA,NA,NA,-3,Thu Aug 26 2021 20:21:42 GMT+0200 (CEST),1630002102969,group_ident,2
3030,NA,NA,21,NA,Abitur,283,Männlich,NA,Andere,NA,NA,NA,0,Thu Aug 26 2021 17:28:58 GMT+0200 (CEST),1629991738846,topic_choice,1
3030,NA,NA,21,NA,Abitur,283,Männlich,NA,Andere,NA,NA,NA,0,Thu Aug 26 2021 17:28:58 GMT+0200 (CEST),1629991738846,statement_rating,1
3030,NA,NA,21,true,Abitur,283,Männlich,true,Andere,NA,NA,NA,next,Thu Aug 26 2021 17:28:58 GMT+0200 (CEST),1629991738846,dilemma_decision1,1
3030,NA,NA,21,true,Abitur,283,Männlich,true,Andere,NA,NA,NA,next,Thu Aug 26 2021 17:28:58 GMT+0200 (CEST),1629991738846,dilemma_decision1,2
3030,NA,NA,21,true,Abitur,283,Männlich,true,Andere,NA,NA,NA,next,Thu Aug 26 2021 17:28:58 GMT+0200 (CEST),1629991738846,dilemma_decision1,3
3030,NA,NA,21,true,Abitur,283,Männlich,true,Andere,NA,NA,NA,4,Thu Aug 26 2021 17:28:58 GMT+0200 (CEST),1629991738846,dilemma_decision1,4
3030,NA,NA,21,true,Abitur,283,Männlich,true,Andere,NA,NA,NA,-2,Thu Aug 26 2021 17:28:58 GMT+0200 (CEST),1629991738846,dilemma_decision1,5
3030,NA,NA,21,true,Abitur,283,Männlich,false,Andere,NA,NA,NA,next,Thu Aug 26 2021 17:28:58 GMT+0200 (CEST),1629991738846,dilemma_decision2,1
3030,NA,NA,21,true,Abitur,283,Männlich,false,Andere,NA,NA,NA,next,Thu Aug 26 2021 17:28:58 GMT+0200 (CEST),1629991738846,dilemma_decision2,2
3030,NA,NA,21,true,Abitur,283,Männlich,false,Andere,NA,NA,NA,next,Thu Aug 26 2021 17:28:58 GMT+0200 (CEST),1629991738846,dilemma_decision2,3
3030,NA,NA,21,true,Abitur,283,Männlich,false,Andere,NA,NA,NA,5,Thu Aug 26 2021 17:28:58 GMT+0200 (CEST),1629991738846,dilemma_decision2,4
3030,NA,NA,21,true,Abitur,283,Männlich,false,Andere,NA,NA,NA,-1,Thu Aug 26 2021 17:28:58 GMT+0200 (CEST),1629991738846,dilemma_decision2,5
3030,,10655,21,NA,Abitur,283,Männlich,NA,Andere,Du musstest immer so schnell wie möglich antworten.,"Es ist irrelevant, wie lange du für deine Antworten benötigt hast.",Welche dieser Behauptungen über dieses Experiment ist wahr?,"Es ist irrelevant, wie lange du für deine Antworten benötigt hast.",Thu Aug 26 2021 17:28:58 GMT+0200 (CEST),1629991738846,understanding_check,1
3030,,16307,21,NA,Abitur,283,Männlich,NA,Andere,Anfangs wurden dir mehrere Themen zur Auswahl gestellt.,Du konntest dir ein Dilemma aussuchen.,Welche dieser Behauptungen über dieses Experiment ist wahr?,Anfangs wurden dir mehrere Themen zur Auswahl gestellt.,Thu Aug 26 2021 17:28:58 GMT+0200 (CEST),1629991738846,understanding_check,2
3030,,14740,21,NA,Abitur,283,Männlich,NA,Andere,Für die Durchführung dieses Experiments erhälst du eine Aufwandsentschädigung oder VP Stunden.,"Wir können dir leider keine Aufwandsentschädigung oder VP Stunden anbieten, sind dir aber sehr dankbar.",Welche dieser Behauptungen über dieses Experiment ist wahr?,"Wir können dir leider keine Aufwandsentschädigung oder VP Stunden anbieten, sind dir aber sehr dankbar.",Thu Aug 26 2021 17:28:58 GMT+0200 (CEST),1629991738846,understanding_check,3
3030,NA,NA,21,NA,Abitur,283,Männlich,NA,Andere,NA,NA,NA,-2,Thu Aug 26 2021 17:28:58 GMT+0200 (CEST),1629991738846,group_ident,1
3030,NA,NA,21,NA,Abitur,283,Männlich,NA,Andere,NA,NA,NA,-1,Thu Aug 26 2021 17:28:58 GMT+0200 (CEST),1629991738846,group_ident,2
2989,NA,NA,20,NA,Abitur,283,Männlich,NA,Deutsch,NA,NA,NA,4,Thu Aug 26 2021 09:14:14 GMT+0200 (Central European Summer Time),1629962054742,topic_choice,1
2989,NA,NA,20,NA,Abitur,283,Männlich,NA,Deutsch,NA,NA,NA,-5,Thu Aug 26 2021 09:14:14 GMT+0200 (Central European Summer Time),1629962054742,statement_rating,1
2989,NA,NA,20,true,Abitur,283,Männlich,true,Deutsch,NA,NA,NA,next,Thu Aug 26 2021 09:14:14 GMT+0200 (Central European Summer Time),1629962054742,dilemma_decision1,1
2989,NA,NA,20,true,Abitur,283,Männlich,true,Deutsch,NA,NA,NA,next,Thu Aug 26 2021 09:14:14 GMT+0200 (Central European Summer Time),1629962054742,dilemma_decision1,2
2989,NA,NA,20,true,Abitur,283,Männlich,true,Deutsch,NA,NA,NA,next,Thu Aug 26 2021 09:14:14 GMT+0200 (Central European Summer Time),1629962054742,dilemma_decision1,3
2989,NA,NA,20,true,Abitur,283,Männlich,true,Deutsch,NA,NA,NA,2,Thu Aug 26 2021 09:14:14 GMT+0200 (Central European Summer Time),1629962054742,dilemma_decision1,4
2989,NA,NA,20,true,Abitur,283,Männlich,true,Deutsch,NA,NA,NA,0,Thu Aug 26 2021 09:14:14 GMT+0200 (Central European Summer Time),1629962054742,dilemma_decision1,5
2989,NA,NA,20,true,Abitur,283,Männlich,false,Deutsch,NA,NA,NA,next,Thu Aug 26 2021 09:14:14 GMT+0200 (Central European Summer Time),1629962054742,dilemma_decision2,1
2989,NA,NA,20,true,Abitur,283,Männlich,false,Deutsch,NA,NA,NA,next,Thu Aug 26 2021 09:14:14 GMT+0200 (Central European Summer Time),1629962054742,dilemma_decision2,2
2989,NA,NA,20,true,Abitur,283,Männlich,false,Deutsch,NA,NA,NA,next,Thu Aug 26 2021 09:14:14 GMT+0200 (Central European Summer Time),1629962054742,dilemma_decision2,3
2989,NA,NA,20,true,Abitur,283,Männlich,false,Deutsch,NA,NA,NA,1,Thu Aug 26 2021 09:14:14 GMT+0200 (Central European Summer Time),1629962054742,dilemma_decision2,4
2989,NA,NA,20,true,Abitur,283,Männlich,false,Deutsch,NA,NA,NA,2,Thu Aug 26 2021 09:14:14 GMT+0200 (Central European Summer Time),1629962054742,dilemma_decision2,5
2989,,10842,20,NA,Abitur,283,Männlich,NA,Deutsch,Du musstest immer so schnell wie möglich antworten.,"Es ist irrelevant, wie lange du für deine Antworten benötigt hast.",Welche dieser Behauptungen über dieses Experiment ist wahr?,Du musstest immer so schnell wie möglich antworten.,Thu Aug 26 2021 09:14:14 GMT+0200 (Central European Summer Time),1629962054742,understanding_check,1
2989,,8358,20,NA,Abitur,283,Männlich,NA,Deutsch,Anfangs wurden dir mehrere Themen zur Auswahl gestellt.,Du konntest dir ein Dilemma aussuchen.,Welche dieser Behauptungen über dieses Experiment ist wahr?,Anfangs wurden dir mehrere Themen zur Auswahl gestellt.,Thu Aug 26 2021 09:14:14 GMT+0200 (Central European Summer Time),1629962054742,understanding_check,2
2989,,6674,20,NA,Abitur,283,Männlich,NA,Deutsch,Für die Durchführung dieses Experiments erhälst du eine Aufwandsentschädigung oder VP Stunden.,"Wir können dir leider keine Aufwandsentschädigung oder VP Stunden anbieten, sind dir aber sehr dankbar.",Welche dieser Behauptungen über dieses Experiment ist wahr?,"Wir können dir leider keine Aufwandsentschädigung oder VP Stunden anbieten, sind dir aber sehr dankbar.",Thu Aug 26 2021 09:14:14 GMT+0200 (Central European Summer Time),1629962054742,understanding_check,3
2989,NA,NA,20,NA,Abitur,283,Männlich,NA,Deutsch,NA,NA,NA,-3,Thu Aug 26 2021 09:14:14 GMT+0200 (Central European Summer Time),1629962054742,group_ident,1
2989,NA,NA,20,NA,Abitur,283,Männlich,NA,Deutsch,NA,NA,NA,2,Thu Aug 26 2021 09:14:14 GMT+0200 (Central European Summer Time),1629962054742,group_ident,2
2988,NA,NA,58,NA,Universitärer Abschluss,283,Männlich,NA,,NA,NA,NA,1,Thu Aug 26 2021 07:04:30 GMT+0200 (CEST),1629954270648,topic_choice,1
2988,NA,NA,58,NA,Universitärer Abschluss,283,Männlich,NA,,NA,NA,NA,0,Thu Aug 26 2021 07:04:30 GMT+0200 (CEST),1629954270648,statement_rating,1
2988,NA,NA,58,true,Universitärer Abschluss,283,Männlich,false,,NA,NA,NA,next,Thu Aug 26 2021 07:04:30 GMT+0200 (CEST),1629954270648,dilemma_decision1,1
2988,NA,NA,58,true,Universitärer Abschluss,283,Männlich,false,,NA,NA,NA,next,Thu Aug 26 2021 07:04:30 GMT+0200 (CEST),1629954270648,dilemma_decision1,2
2988,NA,NA,58,true,Universitärer Abschluss,283,Männlich,false,,NA,NA,NA,next,Thu Aug 26 2021 07:04:30 GMT+0200 (CEST),1629954270648,dilemma_decision1,3
2988,NA,NA,58,true,Universitärer Abschluss,283,Männlich,false,,NA,NA,NA,2,Thu Aug 26 2021 07:04:30 GMT+0200 (CEST),1629954270648,dilemma_decision1,4
2988,NA,NA,58,true,Universitärer Abschluss,283,Männlich,false,,NA,NA,NA,0,Thu Aug 26 2021 07:04:30 GMT+0200 (CEST),1629954270648,dilemma_decision1,5
2988,NA,NA,58,true,Universitärer Abschluss,283,Männlich,false,,NA,NA,NA,next,Thu Aug 26 2021 07:04:30 GMT+0200 (CEST),1629954270648,dilemma_decision2,1
2988,NA,NA,58,true,Universitärer Abschluss,283,Männlich,false,,NA,NA,NA,next,Thu Aug 26 2021 07:04:30 GMT+0200 (CEST),1629954270648,dilemma_decision2,2
2988,NA,NA,58,true,Universitärer Abschluss,283,Männlich,false,,NA,NA,NA,next,Thu Aug 26 2021 07:04:30 GMT+0200 (CEST),1629954270648,dilemma_decision2,3
2988,NA,NA,58,true,Universitärer Abschluss,283,Männlich,false,,NA,NA,NA,4,Thu Aug 26 2021 07:04:30 GMT+0200 (CEST),1629954270648,dilemma_decision2,4
2988,NA,NA,58,true,Universitärer Abschluss,283,Männlich,false,,NA,NA,NA,0,Thu Aug 26 2021 07:04:30 GMT+0200 (CEST),1629954270648,dilemma_decision2,5
2988,,13161,58,NA,Universitärer Abschluss,283,Männlich,NA,,Du musstest immer so schnell wie möglich antworten.,"Es ist irrelevant, wie lange du für deine Antworten benötigt hast.",Welche dieser Behauptungen über dieses Experiment ist wahr?,"Es ist irrelevant, wie lange du für deine Antworten benötigt hast.",Thu Aug 26 2021 07:04:30 GMT+0200 (CEST),1629954270648,understanding_check,1
2988,,16227,58,NA,Universitärer Abschluss,283,Männlich,NA,,Anfangs wurden dir mehrere Themen zur Auswahl gestellt.,Du konntest dir ein Dilemma aussuchen.,Welche dieser Behauptungen über dieses Experiment ist wahr?,Du konntest dir ein Dilemma aussuchen.,Thu Aug 26 2021 07:04:30 GMT+0200 (CEST),1629954270648,understanding_check,2
2988,,9854,58,NA,Universitärer Abschluss,283,Männlich,NA,,Für die Durchführung dieses Experiments erhälst du eine Aufwandsentschädigung oder VP Stunden.,"Wir können dir leider keine Aufwandsentschädigung oder VP Stunden anbieten, sind dir aber sehr dankbar.",Welche dieser Behauptungen über dieses Experiment ist wahr?,"Wir können dir leider keine Aufwandsentschädigung oder VP Stunden anbieten, sind dir aber sehr dankbar.",Thu Aug 26 2021 07:04:30 GMT+0200 (CEST),1629954270648,understanding_check,3
2988,NA,NA,58,NA,Universitärer Abschluss,283,Männlich,NA,,NA,NA,NA,0,Thu Aug 26 2021 07:04:30 GMT+0200 (CEST),1629954270648,group_ident,1
2988,NA,NA,58,NA,Universitärer Abschluss,283,Männlich,NA,,NA,NA,NA,-1,Thu Aug 26 2021 07:04:30 GMT+0200 (CEST),1629954270648,group_ident,2
2987,NA,NA,19,NA,Abitur,283,Männlich,NA,Deutsch,NA,NA,NA,2,Wed Aug 25 2021 22:08:10 GMT+0200 (CEST),1629922090163,topic_choice,1
2987,NA,NA,19,NA,Abitur,283,Männlich,NA,Deutsch,NA,NA,NA,4,Wed Aug 25 2021 22:08:10 GMT+0200 (CEST),1629922090163,statement_rating,1
2987,NA,NA,19,false,Abitur,283,Männlich,true,Deutsch,NA,NA,NA,next,Wed Aug 25 2021 22:08:10 GMT+0200 (CEST),1629922090163,dilemma_decision2,1
2987,NA,NA,19,false,Abitur,283,Männlich,true,Deutsch,NA,NA,NA,next,Wed Aug 25 2021 22:08:10 GMT+0200 (CEST),1629922090163,dilemma_decision2,2
2987,NA,NA,19,false,Abitur,283,Männlich,true,Deutsch,NA,NA,NA,next,Wed Aug 25 2021 22:08:10 GMT+0200 (CEST),1629922090163,dilemma_decision2,3
2987,NA,NA,19,false,Abitur,283,Männlich,true,Deutsch,NA,NA,NA,3,Wed Aug 25 2021 22:08:10 GMT+0200 (CEST),1629922090163,dilemma_decision2,4
2987,NA,NA,19,false,Abitur,283,Männlich,true,Deutsch,NA,NA,NA,-3,Wed Aug 25 2021 22:08:10 GMT+0200 (CEST),1629922090163,dilemma_decision2,5
2987,NA,NA,19,false,Abitur,283,Männlich,true,Deutsch,NA,NA,NA,next,Wed Aug 25 2021 22:08:10 GMT+0200 (CEST),1629922090163,dilemma_decision1,1
2987,NA,NA,19,false,Abitur,283,Männlich,true,Deutsch,NA,NA,NA,next,Wed Aug 25 2021 22:08:10 GMT+0200 (CEST),1629922090163,dilemma_decision1,2
2987,NA,NA,19,false,Abitur,283,Männlich,true,Deutsch,NA,NA,NA,next,Wed Aug 25 2021 22:08:10 GMT+0200 (CEST),1629922090163,dilemma_decision1,3
2987,NA,NA,19,false,Abitur,283,Männlich,true,Deutsch,NA,NA,NA,2,Wed Aug 25 2021 22:08:10 GMT+0200 (CEST),1629922090163,dilemma_decision1,4
2987,NA,NA,19,false,Abitur,283,Männlich,true,Deutsch,NA,NA,NA,1,Wed Aug 25 2021 22:08:10 GMT+0200 (CEST),1629922090163,dilemma_decision1,5
2987,,4785,19,NA,Abitur,283,Männlich,NA,Deutsch,Du musstest immer so schnell wie möglich antworten.,"Es ist irrelevant, wie lange du für deine Antworten benötigt hast.",Welche dieser Behauptungen über dieses Experiment ist wahr?,"Es ist irrelevant, wie lange du für deine Antworten benötigt hast.",Wed Aug 25 2021 22:08:10 GMT+0200 (CEST),1629922090163,understanding_check,1
2987,,8757,19,NA,Abitur,283,Männlich,NA,Deutsch,Anfangs wurden dir mehrere Themen zur Auswahl gestellt.,Du konntest dir ein Dilemma aussuchen.,Welche dieser Behauptungen über dieses Experiment ist wahr?,Anfangs wurden dir mehrere Themen zur Auswahl gestellt.,Wed Aug 25 2021 22:08:10 GMT+0200 (CEST),1629922090163,understanding_check,2
2987,,7999,19,NA,Abitur,283,Männlich,NA,Deutsch,Für die Durchführung dieses Experiments erhälst du eine Aufwandsentschädigung oder VP Stunden.,"Wir können dir leider keine Aufwandsentschädigung oder VP Stunden anbieten, sind dir aber sehr dankbar.",Welche dieser Behauptungen über dieses Experiment ist wahr?,"Wir können dir leider keine Aufwandsentschädigung oder VP Stunden anbieten, sind dir aber sehr dankbar.",Wed Aug 25 2021 22:08:10 GMT+0200 (CEST),1629922090163,understanding_check,3
2987,NA,NA,19,NA,Abitur,283,Männlich,NA,Deutsch,NA,NA,NA,2,Wed Aug 25 2021 22:08:10 GMT+0200 (CEST),1629922090163,group_ident,1
2987,NA,NA,19,NA,Abitur,283,Männlich,NA,Deutsch,NA,NA,NA,-3,Wed Aug 25 2021 22:08:10 GMT+0200 (CEST),1629922090163,group_ident,2
2947,NA,NA,61,NA,Hochschulabschluss,283,Weiblich,NA,Deutsch,NA,NA,NA,2,Wed Aug 25 2021 17:44:16 GMT+0200 (GMT+02:00),1629906256558,topic_choice,1
2947,NA,NA,61,NA,Hochschulabschluss,283,Weiblich,NA,Deutsch,NA,NA,NA,4,Wed Aug 25 2021 17:44:16 GMT+0200 (GMT+02:00),1629906256558,statement_rating,1
2947,NA,NA,61,true,Hochschulabschluss,283,Weiblich,false,Deutsch,NA,NA,NA,next,Wed Aug 25 2021 17:44:16 GMT+0200 (GMT+02:00),1629906256558,dilemma_decision2,1
2947,NA,NA,61,true,Hochschulabschluss,283,Weiblich,false,Deutsch,NA,NA,NA,next,Wed Aug 25 2021 17:44:16 GMT+0200 (GMT+02:00),1629906256558,dilemma_decision2,2
2947,NA,NA,61,true,Hochschulabschluss,283,Weiblich,false,Deutsch,NA,NA,NA,next,Wed Aug 25 2021 17:44:16 GMT+0200 (GMT+02:00),1629906256558,dilemma_decision2,3
2947,NA,NA,61,true,Hochschulabschluss,283,Weiblich,false,Deutsch,NA,NA,NA,2,Wed Aug 25 2021 17:44:16 GMT+0200 (GMT+02:00),1629906256558,dilemma_decision2,4
2947,NA,NA,61,true,Hochschulabschluss,283,Weiblich,false,Deutsch,NA,NA,NA,-3,Wed Aug 25 2021 17:44:16 GMT+0200 (GMT+02:00),1629906256558,dilemma_decision2,5
2947,NA,NA,61,true,Hochschulabschluss,283,Weiblich,false,Deutsch,NA,NA,NA,next,Wed Aug 25 2021 17:44:16 GMT+0200 (GMT+02:00),1629906256558,dilemma_decision1,1
2947,NA,NA,61,true,Hochschulabschluss,283,Weiblich,false,Deutsch,NA,NA,NA,next,Wed Aug 25 2021 17:44:16 GMT+0200 (GMT+02:00),1629906256558,dilemma_decision1,2
2947,NA,NA,61,true,Hochschulabschluss,283,Weiblich,false,Deutsch,NA,NA,NA,next,Wed Aug 25 2021 17:44:16 GMT+0200 (GMT+02:00),1629906256558,dilemma_decision1,3
2947,NA,NA,61,true,Hochschulabschluss,283,Weiblich,false,Deutsch,NA,NA,NA,3,Wed Aug 25 2021 17:44:16 GMT+0200 (GMT+02:00),1629906256558,dilemma_decision1,4
2947,NA,NA,61,true,Hochschulabschluss,283,Weiblich,false,Deutsch,NA,NA,NA,-3,Wed Aug 25 2021 17:44:16 GMT+0200 (GMT+02:00),1629906256558,dilemma_decision1,5
2947,,34337,61,NA,Hochschulabschluss,283,Weiblich,NA,Deutsch,Du musstest immer so schnell wie möglich antworten.,"Es ist irrelevant, wie lange du für deine Antworten benötigt hast.",Welche dieser Behauptungen über dieses Experiment ist wahr?,"Es ist irrelevant, wie lange du für deine Antworten benötigt hast.",Wed Aug 25 2021 17:44:16 GMT+0200 (GMT+02:00),1629906256558,understanding_check,1
2947,,13893,61,NA,Hochschulabschluss,283,Weiblich,NA,Deutsch,Anfangs wurden dir mehrere Themen zur Auswahl gestellt.,Du konntest dir ein Dilemma aussuchen.,Welche dieser Behauptungen über dieses Experiment ist wahr?,Anfangs wurden dir mehrere Themen zur Auswahl gestellt.,Wed Aug 25 2021 17:44:16 GMT+0200 (GMT+02:00),1629906256558,understanding_check,2
2947,,14321,61,NA,Hochschulabschluss,283,Weiblich,NA,Deutsch,Für die Durchführung dieses Experiments erhälst du eine Aufwandsentschädigung oder VP Stunden.,"Wir können dir leider keine Aufwandsentschädigung oder VP Stunden anbieten, sind dir aber sehr dankbar.",Welche dieser Behauptungen über dieses Experiment ist wahr?,"Wir können dir leider keine Aufwandsentschädigung oder VP Stunden anbieten, sind dir aber sehr dankbar.",Wed Aug 25 2021 17:44:16 GMT+0200 (GMT+02:00),1629906256558,understanding_check,3
2947,NA,NA,61,NA,Hochschulabschluss,283,Weiblich,NA,Deutsch,NA,NA,NA,2,Wed Aug 25 2021 17:44:16 GMT+0200 (GMT+02:00),1629906256558,group_ident,1
2947,NA,NA,61,NA,Hochschulabschluss,283,Weiblich,NA,Deutsch,NA,NA,NA,-2,Wed Aug 25 2021 17:44:16 GMT+0200 (GMT+02:00),1629906256558,group_ident,2
2938,NA,NA,26,NA,Universitärer Abschluss,283,Weiblich,NA,Deutsch,NA,NA,NA,5,Wed Aug 25 2021 14:30:10 GMT+0200 (Mitteleuropäische Sommerzeit),1629894610813,topic_choice,1
2938,NA,NA,26,NA,Universitärer Abschluss,283,Weiblich,NA,Deutsch,NA,NA,NA,1,Wed Aug 25 2021 14:30:10 GMT+0200 (Mitteleuropäische Sommerzeit),1629894610813,statement_rating,1
2938,NA,NA,26,true,Universitärer Abschluss,283,Weiblich,false,Deutsch,NA,NA,NA,next,Wed Aug 25 2021 14:30:10 GMT+0200 (Mitteleuropäische Sommerzeit),1629894610813,dilemma_decision1,1
2938,NA,NA,26,true,Universitärer Abschluss,283,Weiblich,false,Deutsch,NA,NA,NA,next,Wed Aug 25 2021 14:30:10 GMT+0200 (Mitteleuropäische Sommerzeit),1629894610813,dilemma_decision1,2
2938,NA,NA,26,true,Universitärer Abschluss,283,Weiblich,false,Deutsch,NA,NA,NA,next,Wed Aug 25 2021 14:30:10 GMT+0200 (Mitteleuropäische Sommerzeit),1629894610813,dilemma_decision1,3
2938,NA,NA,26,true,Universitärer Abschluss,283,Weiblich,false,Deutsch,NA,NA,NA,3,Wed Aug 25 2021 14:30:10 GMT+0200 (Mitteleuropäische Sommerzeit),1629894610813,dilemma_decision1,4
2938,NA,NA,26,true,Universitärer Abschluss,283,Weiblich,false,Deutsch,NA,NA,NA,-3,Wed Aug 25 2021 14:30:10 GMT+0200 (Mitteleuropäische Sommerzeit),1629894610813,dilemma_decision1,5
2938,NA,NA,26,true,Universitärer Abschluss,283,Weiblich,true,Deutsch,NA,NA,NA,next,Wed Aug 25 2021 14:30:10 GMT+0200 (Mitteleuropäische Sommerzeit),1629894610813,dilemma_decision2,1
2938,NA,NA,26,true,Universitärer Abschluss,283,Weiblich,true,Deutsch,NA,NA,NA,next,Wed Aug 25 2021 14:30:10 GMT+0200 (Mitteleuropäische Sommerzeit),1629894610813,dilemma_decision2,2
2938,NA,NA,26,true,Universitärer Abschluss,283,Weiblich,true,Deutsch,NA,NA,NA,next,Wed Aug 25 2021 14:30:10 GMT+0200 (Mitteleuropäische Sommerzeit),1629894610813,dilemma_decision2,3
2938,NA,NA,26,true,Universitärer Abschluss,283,Weiblich,true,Deutsch,NA,NA,NA,2,Wed Aug 25 2021 14:30:10 GMT+0200 (Mitteleuropäische Sommerzeit),1629894610813,dilemma_decision2,4
2938,NA,NA,26,true,Universitärer Abschluss,283,Weiblich,true,Deutsch,NA,NA,NA,-2,Wed Aug 25 2021 14:30:10 GMT+0200 (Mitteleuropäische Sommerzeit),1629894610813,dilemma_decision2,5
2938,,9375,26,NA,Universitärer Abschluss,283,Weiblich,NA,Deutsch,Du musstest immer so schnell wie möglich antworten.,"Es ist irrelevant, wie lange du für deine Antworten benötigt hast.",Welche dieser Behauptungen über dieses Experiment ist wahr?,"Es ist irrelevant, wie lange du für deine Antworten benötigt hast.",Wed Aug 25 2021 14:30:10 GMT+0200 (Mitteleuropäische Sommerzeit),1629894610813,understanding_check,1
2938,,7234,26,NA,Universitärer Abschluss,283,Weiblich,NA,Deutsch,Anfangs wurden dir mehrere Themen zur Auswahl gestellt.,Du konntest dir ein Dilemma aussuchen.,Welche dieser Behauptungen über dieses Experiment ist wahr?,Anfangs wurden dir mehrere Themen zur Auswahl gestellt.,Wed Aug 25 2021 14:30:10 GMT+0200 (Mitteleuropäische Sommerzeit),1629894610813,understanding_check,2
2938,,10096,26,NA,Universitärer Abschluss,283,Weiblich,NA,Deutsch,Für die Durchführung dieses Experiments erhälst du eine Aufwandsentschädigung oder VP Stunden.,"Wir können dir leider keine Aufwandsentschädigung oder VP Stunden anbieten, sind dir aber sehr dankbar.",Welche dieser Behauptungen über dieses Experiment ist wahr?,"Wir können dir leider keine Aufwandsentschädigung oder VP Stunden anbieten, sind dir aber sehr dankbar.",Wed Aug 25 2021 14:30:10 GMT+0200 (Mitteleuropäische Sommerzeit),1629894610813,understanding_check,3
2938,NA,NA,26,NA,Universitärer Abschluss,283,Weiblich,NA,Deutsch,NA,NA,NA,-1,Wed Aug 25 2021 14:30:10 GMT+0200 (Mitteleuropäische Sommerzeit),1629894610813,group_ident,1
2938,NA,NA,26,NA,Universitärer Abschluss,283,Weiblich,NA,Deutsch,NA,NA,NA,0,Wed Aug 25 2021 14:30:10 GMT+0200 (Mitteleuropäische Sommerzeit),1629894610813,group_ident,2
2937,NA,NA,20,NA,Abitur,283,Männlich,NA,Deutsch,NA,NA,NA,2,Wed Aug 25 2021 14:23:29 GMT+0200 (Central European Summer Time),1629894209748,topic_choice,1
2937,NA,NA,20,NA,Abitur,283,Männlich,NA,Deutsch,NA,NA,NA,3,Wed Aug 25 2021 14:23:29 GMT+0200 (Central European Summer Time),1629894209748,statement_rating,1
2937,NA,NA,20,false,Abitur,283,Männlich,false,Deutsch,NA,NA,NA,next,Wed Aug 25 2021 14:23:29 GMT+0200 (Central European Summer Time),1629894209748,dilemma_decision1,1
2937,NA,NA,20,false,Abitur,283,Männlich,false,Deutsch,NA,NA,NA,next,Wed Aug 25 2021 14:23:29 GMT+0200 (Central European Summer Time),1629894209748,dilemma_decision1,2
2937,NA,NA,20,false,Abitur,283,Männlich,false,Deutsch,NA,NA,NA,next,Wed Aug 25 2021 14:23:29 GMT+0200 (Central European Summer Time),1629894209748,dilemma_decision1,3
2937,NA,NA,20,false,Abitur,283,Männlich,false,Deutsch,NA,NA,NA,4,Wed Aug 25 2021 14:23:29 GMT+0200 (Central European Summer Time),1629894209748,dilemma_decision1,4
2937,NA,NA,20,false,Abitur,283,Männlich,false,Deutsch,NA,NA,NA,0,Wed Aug 25 2021 14:23:29 GMT+0200 (Central European Summer Time),1629894209748,dilemma_decision1,5
2937,NA,NA,20,false,Abitur,283,Männlich,true,Deutsch,NA,NA,NA,next,Wed Aug 25 2021 14:23:29 GMT+0200 (Central European Summer Time),1629894209748,dilemma_decision2,1
2937,NA,NA,20,false,Abitur,283,Männlich,true,Deutsch,NA,NA,NA,next,Wed Aug 25 2021 14:23:29 GMT+0200 (Central European Summer Time),1629894209748,dilemma_decision2,2
2937,NA,NA,20,false,Abitur,283,Männlich,true,Deutsch,NA,NA,NA,next,Wed Aug 25 2021 14:23:29 GMT+0200 (Central European Summer Time),1629894209748,dilemma_decision2,3
2937,NA,NA,20,false,Abitur,283,Männlich,true,Deutsch,NA,NA,NA,3,Wed Aug 25 2021 14:23:29 GMT+0200 (Central European Summer Time),1629894209748,dilemma_decision2,4
2937,NA,NA,20,false,Abitur,283,Männlich,true,Deutsch,NA,NA,NA,2,Wed Aug 25 2021 14:23:29 GMT+0200 (Central European Summer Time),1629894209748,dilemma_decision2,5
2937,,8275,20,NA,Abitur,283,Männlich,NA,Deutsch,Du musstest immer so schnell wie möglich antworten.,"Es ist irrelevant, wie lange du für deine Antworten benötigt hast.",Welche dieser Behauptungen über dieses Experiment ist wahr?,"Es ist irrelevant, wie lange du für deine Antworten benötigt hast.",Wed Aug 25 2021 14:23:29 GMT+0200 (Central European Summer Time),1629894209748,understanding_check,1
2937,,8813,20,NA,Abitur,283,Männlich,NA,Deutsch,Anfangs wurden dir mehrere Themen zur Auswahl gestellt.,Du konntest dir ein Dilemma aussuchen.,Welche dieser Behauptungen über dieses Experiment ist wahr?,Anfangs wurden dir mehrere Themen zur Auswahl gestellt.,Wed Aug 25 2021 14:23:29 GMT+0200 (Central European Summer Time),1629894209748,understanding_check,2
2937,,9609,20,NA,Abitur,283,Männlich,NA,Deutsch,Für die Durchführung dieses Experiments erhälst du eine Aufwandsentschädigung oder VP Stunden.,"Wir können dir leider keine Aufwandsentschädigung oder VP Stunden anbieten, sind dir aber sehr dankbar.",Welche dieser Behauptungen über dieses Experiment ist wahr?,"Wir können dir leider keine Aufwandsentschädigung oder VP Stunden anbieten, sind dir aber sehr dankbar.",Wed Aug 25 2021 14:23:29 GMT+0200 (Central European Summer Time),1629894209748,understanding_check,3
2937,NA,NA,20,NA,Abitur,283,Männlich,NA,Deutsch,NA,NA,NA,2,Wed Aug 25 2021 14:23:29 GMT+0200 (Central European Summer Time),1629894209748,group_ident,1
2937,NA,NA,20,NA,Abitur,283,Männlich,NA,Deutsch,NA,NA,NA,-3,Wed Aug 25 2021 14:23:29 GMT+0200 (Central European Summer Time),1629894209748,group_ident,2
2932,NA,NA,19,NA,Abitur,283,Weiblich,NA,Deutsch,NA,NA,NA,6,Wed Aug 25 2021 13:42:31 GMT+0200 (Mitteleuropäische Sommerzeit),1629891751558,topic_choice,1
2932,NA,NA,19,NA,Abitur,283,Weiblich,NA,Deutsch,NA,NA,NA,3,Wed Aug 25 2021 13:42:31 GMT+0200 (Mitteleuropäische Sommerzeit),1629891751558,statement_rating,1
2932,NA,NA,19,true,Abitur,283,Weiblich,true,Deutsch,NA,NA,NA,next,Wed Aug 25 2021 13:42:31 GMT+0200 (Mitteleuropäische Sommerzeit),1629891751558,dilemma_decision2,1
2932,NA,NA,19,true,Abitur,283,Weiblich,true,Deutsch,NA,NA,NA,next,Wed Aug 25 2021 13:42:31 GMT+0200 (Mitteleuropäische Sommerzeit),1629891751558,dilemma_decision2,2
2932,NA,NA,19,true,Abitur,283,Weiblich,true,Deutsch,NA,NA,NA,next,Wed Aug 25 2021 13:42:31 GMT+0200 (Mitteleuropäische Sommerzeit),1629891751558,dilemma_decision2,3
2932,NA,NA,19,true,Abitur,283,Weiblich,true,Deutsch,NA,NA,NA,2,Wed Aug 25 2021 13:42:31 GMT+0200 (Mitteleuropäische Sommerzeit),1629891751558,dilemma_decision2,4
2932,NA,NA,19,true,Abitur,283,Weiblich,true,Deutsch,NA,NA,NA,-2,Wed Aug 25 2021 13:42:31 GMT+0200 (Mitteleuropäische Sommerzeit),1629891751558,dilemma_decision2,5
2932,NA,NA,19,true,Abitur,283,Weiblich,false,Deutsch,NA,NA,NA,next,Wed Aug 25 2021 13:42:31 GMT+0200 (Mitteleuropäische Sommerzeit),1629891751558,dilemma_decision1,1
2932,NA,NA,19,true,Abitur,283,Weiblich,false,Deutsch,NA,NA,NA,next,Wed Aug 25 2021 13:42:31 GMT+0200 (Mitteleuropäische Sommerzeit),1629891751558,dilemma_decision1,2
2932,NA,NA,19,true,Abitur,283,Weiblich,false,Deutsch,NA,NA,NA,next,Wed Aug 25 2021 13:42:31 GMT+0200 (Mitteleuropäische Sommerzeit),1629891751558,dilemma_decision1,3
2932,NA,NA,19,true,Abitur,283,Weiblich,false,Deutsch,NA,NA,NA,1,Wed Aug 25 2021 13:42:31 GMT+0200 (Mitteleuropäische Sommerzeit),1629891751558,dilemma_decision1,4
2932,NA,NA,19,true,Abitur,283,Weiblich,false,Deutsch,NA,NA,NA,0,Wed Aug 25 2021 13:42:31 GMT+0200 (Mitteleuropäische Sommerzeit),1629891751558,dilemma_decision1,5
2932,,6312,19,NA,Abitur,283,Weiblich,NA,Deutsch,Du musstest immer so schnell wie möglich antworten.,"Es ist irrelevant, wie lange du für deine Antworten benötigt hast.",Welche dieser Behauptungen über dieses Experiment ist wahr?,"Es ist irrelevant, wie lange du für deine Antworten benötigt hast.",Wed Aug 25 2021 13:42:31 GMT+0200 (Mitteleuropäische Sommerzeit),1629891751558,understanding_check,1
2932,,4832,19,NA,Abitur,283,Weiblich,NA,Deutsch,Anfangs wurden dir mehrere Themen zur Auswahl gestellt.,Du konntest dir ein Dilemma aussuchen.,Welche dieser Behauptungen über dieses Experiment ist wahr?,Anfangs wurden dir mehrere Themen zur Auswahl gestellt.,Wed Aug 25 2021 13:42:31 GMT+0200 (Mitteleuropäische Sommerzeit),1629891751558,understanding_check,2
2932,,8349,19,NA,Abitur,283,Weiblich,NA,Deutsch,Für die Durchführung dieses Experiments erhälst du eine Aufwandsentschädigung oder VP Stunden.,"Wir können dir leider keine Aufwandsentschädigung oder VP Stunden anbieten, sind dir aber sehr dankbar.",Welche dieser Behauptungen über dieses Experiment ist wahr?,"Wir können dir leider keine Aufwandsentschädigung oder VP Stunden anbieten, sind dir aber sehr dankbar.",Wed Aug 25 2021 13:42:31 GMT+0200 (Mitteleuropäische Sommerzeit),1629891751558,understanding_check,3
2932,NA,NA,19,NA,Abitur,283,Weiblich,NA,Deutsch,NA,NA,NA,2,Wed Aug 25 2021 13:42:31 GMT+0200 (Mitteleuropäische Sommerzeit),1629891751558,group_ident,1
2932,NA,NA,19,NA,Abitur,283,Weiblich,NA,Deutsch,NA,NA,NA,-3,Wed Aug 25 2021 13:42:31 GMT+0200 (Mitteleuropäische Sommerzeit),1629891751558,group_ident,2
2931,NA,NA,19,NA,Abitur,283,Weiblich,NA,Deutsch,NA,NA,NA,7,Wed Aug 25 2021 12:02:46 GMT+0200 (Central European Summer Time),1629885766858,topic_choice,1
2931,NA,NA,19,NA,Abitur,283,Weiblich,NA,Deutsch,NA,NA,NA,5,Wed Aug 25 2021 12:02:46 GMT+0200 (Central European Summer Time),1629885766858,statement_rating,1
2931,NA,NA,19,true,Abitur,283,Weiblich,true,Deutsch,NA,NA,NA,next,Wed Aug 25 2021 12:02:46 GMT+0200 (Central European Summer Time),1629885766858,dilemma_decision1,1
2931,NA,NA,19,true,Abitur,283,Weiblich,true,Deutsch,NA,NA,NA,next,Wed Aug 25 2021 12:02:46 GMT+0200 (Central European Summer Time),1629885766858,dilemma_decision1,2
2931,NA,NA,19,true,Abitur,283,Weiblich,true,Deutsch,NA,NA,NA,next,Wed Aug 25 2021 12:02:46 GMT+0200 (Central European Summer Time),1629885766858,dilemma_decision1,3
2931,NA,NA,19,true,Abitur,283,Weiblich,true,Deutsch,NA,NA,NA,5,Wed Aug 25 2021 12:02:46 GMT+0200 (Central European Summer Time),1629885766858,dilemma_decision1,4
2931,NA,NA,19,true,Abitur,283,Weiblich,true,Deutsch,NA,NA,NA,1,Wed Aug 25 2021 12:02:46 GMT+0200 (Central European Summer Time),1629885766858,dilemma_decision1,5
2931,NA,NA,19,true,Abitur,283,Weiblich,false,Deutsch,NA,NA,NA,next,Wed Aug 25 2021 12:02:46 GMT+0200 (Central European Summer Time),1629885766858,dilemma_decision2,1
2931,NA,NA,19,true,Abitur,283,Weiblich,false,Deutsch,NA,NA,NA,next,Wed Aug 25 2021 12:02:46 GMT+0200 (Central European Summer Time),1629885766858,dilemma_decision2,2
2931,NA,NA,19,true,Abitur,283,Weiblich,false,Deutsch,NA,NA,NA,next,Wed Aug 25 2021 12:02:46 GMT+0200 (Central European Summer Time),1629885766858,dilemma_decision2,3
2931,NA,NA,19,true,Abitur,283,Weiblich,false,Deutsch,NA,NA,NA,4,Wed Aug 25 2021 12:02:46 GMT+0200 (Central European Summer Time),1629885766858,dilemma_decision2,4
2931,NA,NA,19,true,Abitur,283,Weiblich,false,Deutsch,NA,NA,NA,-3,Wed Aug 25 2021 12:02:46 GMT+0200 (Central European Summer Time),1629885766858,dilemma_decision2,5
2931,,5590,19,NA,Abitur,283,Weiblich,NA,Deutsch,Du musstest immer so schnell wie möglich antworten.,"Es ist irrelevant, wie lange du für deine Antworten benötigt hast.",Welche dieser Behauptungen über dieses Experiment ist wahr?,"Es ist irrelevant, wie lange du für deine Antworten benötigt hast.",Wed Aug 25 2021 12:02:46 GMT+0200 (Central European Summer Time),1629885766858,understanding_check,1
2931,,10253,19,NA,Abitur,283,Weiblich,NA,Deutsch,Anfangs wurden dir mehrere Themen zur Auswahl gestellt.,Du konntest dir ein Dilemma aussuchen.,Welche dieser Behauptungen über dieses Experiment ist wahr?,Anfangs wurden dir mehrere Themen zur Auswahl gestellt.,Wed Aug 25 2021 12:02:46 GMT+0200 (Central European Summer Time),1629885766858,understanding_check,2
2931,,7650,19,NA,Abitur,283,Weiblich,NA,Deutsch,Für die Durchführung dieses Experiments erhälst du eine Aufwandsentschädigung oder VP Stunden.,"Wir können dir leider keine Aufwandsentschädigung oder VP Stunden anbieten, sind dir aber sehr dankbar.",Welche dieser Behauptungen über dieses Experiment ist wahr?,"Wir können dir leider keine Aufwandsentschädigung oder VP Stunden anbieten, sind dir aber sehr dankbar.",Wed Aug 25 2021 12:02:46 GMT+0200 (Central European Summer Time),1629885766858,understanding_check,3
2931,NA,NA,19,NA,Abitur,283,Weiblich,NA,Deutsch,NA,NA,NA,3,Wed Aug 25 2021 12:02:46 GMT+0200 (Central European Summer Time),1629885766858,group_ident,1
2931,NA,NA,19,NA,Abitur,283,Weiblich,NA,Deutsch,NA,NA,NA,-3,Wed Aug 25 2021 12:02:46 GMT+0200 (Central European Summer Time),1629885766858,group_ident,2
2930,NA,NA,23,NA,Abitur,283,Männlich,NA,Deutsch,NA,NA,NA,0,Wed Aug 25 2021 12:51:54 GMT+0200 (Mitteleuropäische Sommerzeit),1629888714231,topic_choice,1
2930,NA,NA,23,NA,Abitur,283,Männlich,NA,Deutsch,NA,NA,NA,-5,Wed Aug 25 2021 12:51:54 GMT+0200 (Mitteleuropäische Sommerzeit),1629888714231,statement_rating,1
2930,NA,NA,23,false,Abitur,283,Männlich,false,Deutsch,NA,NA,NA,next,Wed Aug 25 2021 12:51:54 GMT+0200 (Mitteleuropäische Sommerzeit),1629888714231,dilemma_decision1,1
2930,NA,NA,23,false,Abitur,283,Männlich,false,Deutsch,NA,NA,NA,next,Wed Aug 25 2021 12:51:54 GMT+0200 (Mitteleuropäische Sommerzeit),1629888714231,dilemma_decision1,2
2930,NA,NA,23,false,Abitur,283,Männlich,false,Deutsch,NA,NA,NA,next,Wed Aug 25 2021 12:51:54 GMT+0200 (Mitteleuropäische Sommerzeit),1629888714231,dilemma_decision1,3
2930,NA,NA,23,false,Abitur,283,Männlich,false,Deutsch,NA,NA,NA,4,Wed Aug 25 2021 12:51:54 GMT+0200 (Mitteleuropäische Sommerzeit),1629888714231,dilemma_decision1,4
2930,NA,NA,23,false,Abitur,283,Männlich,false,Deutsch,NA,NA,NA,-2,Wed Aug 25 2021 12:51:54 GMT+0200 (Mitteleuropäische Sommerzeit),1629888714231,dilemma_decision1,5
2930,NA,NA,23,false,Abitur,283,Männlich,false,Deutsch,NA,NA,NA,next,Wed Aug 25 2021 12:51:54 GMT+0200 (Mitteleuropäische Sommerzeit),1629888714231,dilemma_decision2,1
2930,NA,NA,23,false,Abitur,283,Männlich,false,Deutsch,NA,NA,NA,next,Wed Aug 25 2021 12:51:54 GMT+0200 (Mitteleuropäische Sommerzeit),1629888714231,dilemma_decision2,2
2930,NA,NA,23,false,Abitur,283,Männlich,false,Deutsch,NA,NA,NA,next,Wed Aug 25 2021 12:51:54 GMT+0200 (Mitteleuropäische Sommerzeit),1629888714231,dilemma_decision2,3
2930,NA,NA,23,false,Abitur,283,Männlich,false,Deutsch,NA,NA,NA,1,Wed Aug 25 2021 12:51:54 GMT+0200 (Mitteleuropäische Sommerzeit),1629888714231,dilemma_decision2,4
2930,NA,NA,23,false,Abitur,283,Männlich,false,Deutsch,NA,NA,NA,3,Wed Aug 25 2021 12:51:54 GMT+0200 (Mitteleuropäische Sommerzeit),1629888714231,dilemma_decision2,5
2930,,13351,23,NA,Abitur,283,Männlich,NA,Deutsch,Du musstest immer so schnell wie möglich antworten.,"Es ist irrelevant, wie lange du für deine Antworten benötigt hast.",Welche dieser Behauptungen über dieses Experiment ist wahr?,"Es ist irrelevant, wie lange du für deine Antworten benötigt hast.",Wed Aug 25 2021 12:51:54 GMT+0200 (Mitteleuropäische Sommerzeit),1629888714231,understanding_check,1
2930,,5049,23,NA,Abitur,283,Männlich,NA,Deutsch,Anfangs wurden dir mehrere Themen zur Auswahl gestellt.,Du konntest dir ein Dilemma aussuchen.,Welche dieser Behauptungen über dieses Experiment ist wahr?,Anfangs wurden dir mehrere Themen zur Auswahl gestellt.,Wed Aug 25 2021 12:51:54 GMT+0200 (Mitteleuropäische Sommerzeit),1629888714231,understanding_check,2
2930,,7715,23,NA,Abitur,283,Männlich,NA,Deutsch,Für die Durchführung dieses Experiments erhälst du eine Aufwandsentschädigung oder VP Stunden.,"Wir können dir leider keine Aufwandsentschädigung oder VP Stunden anbieten, sind dir aber sehr dankbar.",Welche dieser Behauptungen über dieses Experiment ist wahr?,"Wir können dir leider keine Aufwandsentschädigung oder VP Stunden anbieten, sind dir aber sehr dankbar.",Wed Aug 25 2021 12:51:54 GMT+0200 (Mitteleuropäische Sommerzeit),1629888714231,understanding_check,3
2930,NA,NA,23,NA,Abitur,283,Männlich,NA,Deutsch,NA,NA,NA,-3,Wed Aug 25 2021 12:51:54 GMT+0200 (Mitteleuropäische Sommerzeit),1629888714231,group_ident,1
2930,NA,NA,23,NA,Abitur,283,Männlich,NA,Deutsch,NA,NA,NA,3,Wed Aug 25 2021 12:51:54 GMT+0200 (Mitteleuropäische Sommerzeit),1629888714231,group_ident,2
2928,NA,NA,21,NA,Abitur,283,Männlich,NA,Deutsch,NA,NA,NA,7,Wed Aug 25 2021 12:47:00 GMT+0200 (Mitteleuropäische Sommerzeit),1629888421005,topic_choice,1
2928,NA,NA,21,NA,Abitur,283,Männlich,NA,Deutsch,NA,NA,NA,5,Wed Aug 25 2021 12:47:00 GMT+0200 (Mitteleuropäische Sommerzeit),1629888421005,statement_rating,1
2928,NA,NA,21,false,Abitur,283,Männlich,true,Deutsch,NA,NA,NA,next,Wed Aug 25 2021 12:47:00 GMT+0200 (Mitteleuropäische Sommerzeit),1629888421005,dilemma_decision2,1
2928,NA,NA,21,false,Abitur,283,Männlich,true,Deutsch,NA,NA,NA,next,Wed Aug 25 2021 12:47:00 GMT+0200 (Mitteleuropäische Sommerzeit),1629888421005,dilemma_decision2,2
2928,NA,NA,21,false,Abitur,283,Männlich,true,Deutsch,NA,NA,NA,next,Wed Aug 25 2021 12:47:00 GMT+0200 (Mitteleuropäische Sommerzeit),1629888421005,dilemma_decision2,3
2928,NA,NA,21,false,Abitur,283,Männlich,true,Deutsch,NA,NA,NA,2,Wed Aug 25 2021 12:47:00 GMT+0200 (Mitteleuropäische Sommerzeit),1629888421005,dilemma_decision2,4
2928,NA,NA,21,false,Abitur,283,Männlich,true,Deutsch,NA,NA,NA,-3,Wed Aug 25 2021 12:47:00 GMT+0200 (Mitteleuropäische Sommerzeit),1629888421005,dilemma_decision2,5
2928,NA,NA,21,false,Abitur,283,Männlich,false,Deutsch,NA,NA,NA,next,Wed Aug 25 2021 12:47:00 GMT+0200 (Mitteleuropäische Sommerzeit),1629888421005,dilemma_decision1,1
2928,NA,NA,21,false,Abitur,283,Männlich,false,Deutsch,NA,NA,NA,next,Wed Aug 25 2021 12:47:00 GMT+0200 (Mitteleuropäische Sommerzeit),1629888421005,dilemma_decision1,2
2928,NA,NA,21,false,Abitur,283,Männlich,false,Deutsch,NA,NA,NA,next,Wed Aug 25 2021 12:47:00 GMT+0200 (Mitteleuropäische Sommerzeit),1629888421005,dilemma_decision1,3
2928,NA,NA,21,false,Abitur,283,Männlich,false,Deutsch,NA,NA,NA,5,Wed Aug 25 2021 12:47:00 GMT+0200 (Mitteleuropäische Sommerzeit),1629888421005,dilemma_decision1,4
2928,NA,NA,21,false,Abitur,283,Männlich,false,Deutsch,NA,NA,NA,-1,Wed Aug 25 2021 12:47:00 GMT+0200 (Mitteleuropäische Sommerzeit),1629888421005,dilemma_decision1,5
2928,,5537,21,NA,Abitur,283,Männlich,NA,Deutsch,Du musstest immer so schnell wie möglich antworten.,"Es ist irrelevant, wie lange du für deine Antworten benötigt hast.",Welche dieser Behauptungen über dieses Experiment ist wahr?,"Es ist irrelevant, wie lange du für deine Antworten benötigt hast.",Wed Aug 25 2021 12:47:00 GMT+0200 (Mitteleuropäische Sommerzeit),1629888421005,understanding_check,1
2928,,5742,21,NA,Abitur,283,Männlich,NA,Deutsch,Anfangs wurden dir mehrere Themen zur Auswahl gestellt.,Du konntest dir ein Dilemma aussuchen.,Welche dieser Behauptungen über dieses Experiment ist wahr?,Du konntest dir ein Dilemma aussuchen.,Wed Aug 25 2021 12:47:00 GMT+0200 (Mitteleuropäische Sommerzeit),1629888421005,understanding_check,2
2928,,6568,21,NA,Abitur,283,Männlich,NA,Deutsch,Für die Durchführung dieses Experiments erhälst du eine Aufwandsentschädigung oder VP Stunden.,"Wir können dir leider keine Aufwandsentschädigung oder VP Stunden anbieten, sind dir aber sehr dankbar.",Welche dieser Behauptungen über dieses Experiment ist wahr?,"Wir können dir leider keine Aufwandsentschädigung oder VP Stunden anbieten, sind dir aber sehr dankbar.",Wed Aug 25 2021 12:47:00 GMT+0200 (Mitteleuropäische Sommerzeit),1629888421005,understanding_check,3
2928,NA,NA,21,NA,Abitur,283,Männlich,NA,Deutsch,NA,NA,NA,3,Wed Aug 25 2021 12:47:00 GMT+0200 (Mitteleuropäische Sommerzeit),1629888421005,group_ident,1
2928,NA,NA,21,NA,Abitur,283,Männlich,NA,Deutsch,NA,NA,NA,-3,Wed Aug 25 2021 12:47:00 GMT+0200 (Mitteleuropäische Sommerzeit),1629888421005,group_ident,2
2927,NA,NA,20,NA,Abitur,283,Weiblich,NA,Deutsch,NA,NA,NA,7,Wed Aug 25 2021 12:30:09 GMT+0200 (Central European Summer Time),1629887409184,topic_choice,1
2927,NA,NA,20,NA,Abitur,283,Weiblich,NA,Deutsch,NA,NA,NA,5,Wed Aug 25 2021 12:30:09 GMT+0200 (Central European Summer Time),1629887409184,statement_rating,1
2927,NA,NA,20,true,Abitur,283,Weiblich,false,Deutsch,NA,NA,NA,next,Wed Aug 25 2021 12:30:09 GMT+0200 (Central European Summer Time),1629887409184,dilemma_decision1,1
2927,NA,NA,20,true,Abitur,283,Weiblich,false,Deutsch,NA,NA,NA,next,Wed Aug 25 2021 12:30:09 GMT+0200 (Central European Summer Time),1629887409184,dilemma_decision1,2
2927,NA,NA,20,true,Abitur,283,Weiblich,false,Deutsch,NA,NA,NA,next,Wed Aug 25 2021 12:30:09 GMT+0200 (Central European Summer Time),1629887409184,dilemma_decision1,3
2927,NA,NA,20,true,Abitur,283,Weiblich,false,Deutsch,NA,NA,NA,2,Wed Aug 25 2021 12:30:09 GMT+0200 (Central European Summer Time),1629887409184,dilemma_decision1,4
2927,NA,NA,20,true,Abitur,283,Weiblich,false,Deutsch,NA,NA,NA,-2,Wed Aug 25 2021 12:30:09 GMT+0200 (Central European Summer Time),1629887409184,dilemma_decision1,5
2927,NA,NA,20,true,Abitur,283,Weiblich,true,Deutsch,NA,NA,NA,next,Wed Aug 25 2021 12:30:09 GMT+0200 (Central European Summer Time),1629887409184,dilemma_decision2,1
2927,NA,NA,20,true,Abitur,283,Weiblich,true,Deutsch,NA,NA,NA,next,Wed Aug 25 2021 12:30:09 GMT+0200 (Central European Summer Time),1629887409184,dilemma_decision2,2
2927,NA,NA,20,true,Abitur,283,Weiblich,true,Deutsch,NA,NA,NA,next,Wed Aug 25 2021 12:30:09 GMT+0200 (Central European Summer Time),1629887409184,dilemma_decision2,3
2927,NA,NA,20,true,Abitur,283,Weiblich,true,Deutsch,NA,NA,NA,3,Wed Aug 25 2021 12:30:09 GMT+0200 (Central European Summer Time),1629887409184,dilemma_decision2,4
2927,NA,NA,20,true,Abitur,283,Weiblich,true,Deutsch,NA,NA,NA,-3,Wed Aug 25 2021 12:30:09 GMT+0200 (Central European Summer Time),1629887409184,dilemma_decision2,5
2927,,6783,20,NA,Abitur,283,Weiblich,NA,Deutsch,Du musstest immer so schnell wie möglich antworten.,"Es ist irrelevant, wie lange du für deine Antworten benötigt hast.",Welche dieser Behauptungen über dieses Experiment ist wahr?,"Es ist irrelevant, wie lange du für deine Antworten benötigt hast.",Wed Aug 25 2021 12:30:09 GMT+0200 (Central European Summer Time),1629887409184,understanding_check,1
2927,,4006,20,NA,Abitur,283,Weiblich,NA,Deutsch,Anfangs wurden dir mehrere Themen zur Auswahl gestellt.,Du konntest dir ein Dilemma aussuchen.,Welche dieser Behauptungen über dieses Experiment ist wahr?,Anfangs wurden dir mehrere Themen zur Auswahl gestellt.,Wed Aug 25 2021 12:30:09 GMT+0200 (Central European Summer Time),1629887409184,understanding_check,2
2927,,5951,20,NA,Abitur,283,Weiblich,NA,Deutsch,Für die Durchführung dieses Experiments erhälst du eine Aufwandsentschädigung oder VP Stunden.,"Wir können dir leider keine Aufwandsentschädigung oder VP Stunden anbieten, sind dir aber sehr dankbar.",Welche dieser Behauptungen über dieses Experiment ist wahr?,"Wir können dir leider keine Aufwandsentschädigung oder VP Stunden anbieten, sind dir aber sehr dankbar.",Wed Aug 25 2021 12:30:09 GMT+0200 (Central European Summer Time),1629887409184,understanding_check,3
2927,NA,NA,20,NA,Abitur,283,Weiblich,NA,Deutsch,NA,NA,NA,3,Wed Aug 25 2021 12:30:09 GMT+0200 (Central European Summer Time),1629887409184,group_ident,1
2927,NA,NA,20,NA,Abitur,283,Weiblich,NA,Deutsch,NA,NA,NA,-3,Wed Aug 25 2021 12:30:09 GMT+0200 (Central European Summer Time),1629887409184,group_ident,2
2926,NA,NA,49,NA,Universitärer Abschluss,283,Weiblich,NA,Deutsch,NA,NA,NA,4,Wed Aug 25 2021 12:05:13 GMT+0200 (CEST),1629885913367,topic_choice,1
2926,NA,NA,49,NA,Universitärer Abschluss,283,Weiblich,NA,Deutsch,NA,NA,NA,3,Wed Aug 25 2021 12:05:13 GMT+0200 (CEST),1629885913367,statement_rating,1
2926,NA,NA,49,false,Universitärer Abschluss,283,Weiblich,false,Deutsch,NA,NA,NA,next,Wed Aug 25 2021 12:05:13 GMT+0200 (CEST),1629885913367,dilemma_decision2,1
2926,NA,NA,49,false,Universitärer Abschluss,283,Weiblich,false,Deutsch,NA,NA,NA,next,Wed Aug 25 2021 12:05:13 GMT+0200 (CEST),1629885913367,dilemma_decision2,2
2926,NA,NA,49,false,Universitärer Abschluss,283,Weiblich,false,Deutsch,NA,NA,NA,next,Wed Aug 25 2021 12:05:13 GMT+0200 (CEST),1629885913367,dilemma_decision2,3
2926,NA,NA,49,false,Universitärer Abschluss,283,Weiblich,false,Deutsch,NA,NA,NA,3,Wed Aug 25 2021 12:05:13 GMT+0200 (CEST),1629885913367,dilemma_decision2,4
2926,NA,NA,49,false,Universitärer Abschluss,283,Weiblich,false,Deutsch,NA,NA,NA,1,Wed Aug 25 2021 12:05:13 GMT+0200 (CEST),1629885913367,dilemma_decision2,5
2926,NA,NA,49,false,Universitärer Abschluss,283,Weiblich,true,Deutsch,NA,NA,NA,next,Wed Aug 25 2021 12:05:13 GMT+0200 (CEST),1629885913367,dilemma_decision1,1
2926,NA,NA,49,false,Universitärer Abschluss,283,Weiblich,true,Deutsch,NA,NA,NA,next,Wed Aug 25 2021 12:05:13 GMT+0200 (CEST),1629885913367,dilemma_decision1,2
2926,NA,NA,49,false,Universitärer Abschluss,283,Weiblich,true,Deutsch,NA,NA,NA,next,Wed Aug 25 2021 12:05:13 GMT+0200 (CEST),1629885913367,dilemma_decision1,3
2926,NA,NA,49,false,Universitärer Abschluss,283,Weiblich,true,Deutsch,NA,NA,NA,4,Wed Aug 25 2021 12:05:13 GMT+0200 (CEST),1629885913367,dilemma_decision1,4
2926,NA,NA,49,false,Universitärer Abschluss,283,Weiblich,true,Deutsch,NA,NA,NA,0,Wed Aug 25 2021 12:05:13 GMT+0200 (CEST),1629885913367,dilemma_decision1,5
2926,,20086,49,NA,Universitärer Abschluss,283,Weiblich,NA,Deutsch,Du musstest immer so schnell wie möglich antworten.,"Es ist irrelevant, wie lange du für deine Antworten benötigt hast.",Welche dieser Behauptungen über dieses Experiment ist wahr?,Du musstest immer so schnell wie möglich antworten.,Wed Aug 25 2021 12:05:13 GMT+0200 (CEST),1629885913367,understanding_check,1
2926,,9761,49,NA,Universitärer Abschluss,283,Weiblich,NA,Deutsch,Anfangs wurden dir mehrere Themen zur Auswahl gestellt.,Du konntest dir ein Dilemma aussuchen.,Welche dieser Behauptungen über dieses Experiment ist wahr?,Anfangs wurden dir mehrere Themen zur Auswahl gestellt.,Wed Aug 25 2021 12:05:13 GMT+0200 (CEST),1629885913367,understanding_check,2
2926,,12419,49,NA,Universitärer Abschluss,283,Weiblich,NA,Deutsch,Für die Durchführung dieses Experiments erhälst du eine Aufwandsentschädigung oder VP Stunden.,"Wir können dir leider keine Aufwandsentschädigung oder VP Stunden anbieten, sind dir aber sehr dankbar.",Welche dieser Behauptungen über dieses Experiment ist wahr?,"Wir können dir leider keine Aufwandsentschädigung oder VP Stunden anbieten, sind dir aber sehr dankbar.",Wed Aug 25 2021 12:05:13 GMT+0200 (CEST),1629885913367,understanding_check,3
2926,NA,NA,49,NA,Universitärer Abschluss,283,Weiblich,NA,Deutsch,NA,NA,NA,1,Wed Aug 25 2021 12:05:13 GMT+0200 (CEST),1629885913367,group_ident,1
2926,NA,NA,49,NA,Universitärer Abschluss,283,Weiblich,NA,Deutsch,NA,NA,NA,1,Wed Aug 25 2021 12:05:13 GMT+0200 (CEST),1629885913367,group_ident,2
2924,NA,NA,20,NA,Abitur,283,Weiblich,NA,Deutsch,NA,NA,NA,7,Wed Aug 25 2021 11:49:15 GMT+0200 (Central European Summer Time),1629884955525,topic_choice,1
2924,NA,NA,20,NA,Abitur,283,Weiblich,NA,Deutsch,NA,NA,NA,3,Wed Aug 25 2021 11:49:15 GMT+0200 (Central European Summer Time),1629884955525,statement_rating,1
2924,NA,NA,20,true,Abitur,283,Weiblich,true,Deutsch,NA,NA,NA,next,Wed Aug 25 2021 11:49:15 GMT+0200 (Central European Summer Time),1629884955525,dilemma_decision1,1
2924,NA,NA,20,true,Abitur,283,Weiblich,true,Deutsch,NA,NA,NA,next,Wed Aug 25 2021 11:49:15 GMT+0200 (Central European Summer Time),1629884955525,dilemma_decision1,2
2924,NA,NA,20,true,Abitur,283,Weiblich,true,Deutsch,NA,NA,NA,next,Wed Aug 25 2021 11:49:15 GMT+0200 (Central European Summer Time),1629884955525,dilemma_decision1,3
2924,NA,NA,20,true,Abitur,283,Weiblich,true,Deutsch,NA,NA,NA,2,Wed Aug 25 2021 11:49:15 GMT+0200 (Central European Summer Time),1629884955525,dilemma_decision1,4
2924,NA,NA,20,true,Abitur,283,Weiblich,true,Deutsch,NA,NA,NA,0,Wed Aug 25 2021 11:49:15 GMT+0200 (Central European Summer Time),1629884955525,dilemma_decision1,5
2924,NA,NA,20,true,Abitur,283,Weiblich,true,Deutsch,NA,NA,NA,next,Wed Aug 25 2021 11:49:15 GMT+0200 (Central European Summer Time),1629884955525,dilemma_decision2,1
2924,NA,NA,20,true,Abitur,283,Weiblich,true,Deutsch,NA,NA,NA,next,Wed Aug 25 2021 11:49:15 GMT+0200 (Central European Summer Time),1629884955525,dilemma_decision2,2
2924,NA,NA,20,true,Abitur,283,Weiblich,true,Deutsch,NA,NA,NA,next,Wed Aug 25 2021 11:49:15 GMT+0200 (Central European Summer Time),1629884955525,dilemma_decision2,3
2924,NA,NA,20,true,Abitur,283,Weiblich,true,Deutsch,NA,NA,NA,4,Wed Aug 25 2021 11:49:15 GMT+0200 (Central European Summer Time),1629884955525,dilemma_decision2,4
2924,NA,NA,20,true,Abitur,283,Weiblich,true,Deutsch,NA,NA,NA,-2,Wed Aug 25 2021 11:49:15 GMT+0200 (Central European Summer Time),1629884955525,dilemma_decision2,5
2924,,7519,20,NA,Abitur,283,Weiblich,NA,Deutsch,Du musstest immer so schnell wie möglich antworten.,"Es ist irrelevant, wie lange du für deine Antworten benötigt hast.",Welche dieser Behauptungen über dieses Experiment ist wahr?,"Es ist irrelevant, wie lange du für deine Antworten benötigt hast.",Wed Aug 25 2021 11:49:15 GMT+0200 (Central European Summer Time),1629884955525,understanding_check,1
2924,,4788,20,NA,Abitur,283,Weiblich,NA,Deutsch,Anfangs wurden dir mehrere Themen zur Auswahl gestellt.,Du konntest dir ein Dilemma aussuchen.,Welche dieser Behauptungen über dieses Experiment ist wahr?,Anfangs wurden dir mehrere Themen zur Auswahl gestellt.,Wed Aug 25 2021 11:49:15 GMT+0200 (Central European Summer Time),1629884955525,understanding_check,2
2924,,7255,20,NA,Abitur,283,Weiblich,NA,Deutsch,Für die Durchführung dieses Experiments erhälst du eine Aufwandsentschädigung oder VP Stunden.,"Wir können dir leider keine Aufwandsentschädigung oder VP Stunden anbieten, sind dir aber sehr dankbar.",Welche dieser Behauptungen über dieses Experiment ist wahr?,"Wir können dir leider keine Aufwandsentschädigung oder VP Stunden anbieten, sind dir aber sehr dankbar.",Wed Aug 25 2021 11:49:15 GMT+0200 (Central European Summer Time),1629884955525,understanding_check,3
2924,NA,NA,20,NA,Abitur,283,Weiblich,NA,Deutsch,NA,NA,NA,2,Wed Aug 25 2021 11:49:15 GMT+0200 (Central European Summer Time),1629884955525,group_ident,1
2924,NA,NA,20,NA,Abitur,283,Weiblich,NA,Deutsch,NA,NA,NA,-3,Wed Aug 25 2021 11:49:15 GMT+0200 (Central European Summer Time),1629884955525,group_ident,2
2922,NA,NA,24,NA,Hochschulabschluss,283,Weiblich,NA,Deutsch,NA,NA,NA,4,Wed Aug 25 2021 11:18:17 GMT+0200 (Mitteleuropäische Sommerzeit),1629883097417,topic_choice,1
2922,NA,NA,24,NA,Hochschulabschluss,283,Weiblich,NA,Deutsch,NA,NA,NA,-5,Wed Aug 25 2021 11:18:17 GMT+0200 (Mitteleuropäische Sommerzeit),1629883097417,statement_rating,1
2922,NA,NA,24,false,Hochschulabschluss,283,Weiblich,true,Deutsch,NA,NA,NA,next,Wed Aug 25 2021 11:18:17 GMT+0200 (Mitteleuropäische Sommerzeit),1629883097417,dilemma_decision2,1
2922,NA,NA,24,false,Hochschulabschluss,283,Weiblich,true,Deutsch,NA,NA,NA,next,Wed Aug 25 2021 11:18:17 GMT+0200 (Mitteleuropäische Sommerzeit),1629883097417,dilemma_decision2,2
2922,NA,NA,24,false,Hochschulabschluss,283,Weiblich,true,Deutsch,NA,NA,NA,next,Wed Aug 25 2021 11:18:17 GMT+0200 (Mitteleuropäische Sommerzeit),1629883097417,dilemma_decision2,3
2922,NA,NA,24,false,Hochschulabschluss,283,Weiblich,true,Deutsch,NA,NA,NA,3,Wed Aug 25 2021 11:18:17 GMT+0200 (Mitteleuropäische Sommerzeit),1629883097417,dilemma_decision2,4
2922,NA,NA,24,false,Hochschulabschluss,283,Weiblich,true,Deutsch,NA,NA,NA,-2,Wed Aug 25 2021 11:18:17 GMT+0200 (Mitteleuropäische Sommerzeit),1629883097417,dilemma_decision2,5
2922,NA,NA,24,false,Hochschulabschluss,283,Weiblich,false,Deutsch,NA,NA,NA,next,Wed Aug 25 2021 11:18:17 GMT+0200 (Mitteleuropäische Sommerzeit),1629883097417,dilemma_decision1,1
2922,NA,NA,24,false,Hochschulabschluss,283,Weiblich,false,Deutsch,NA,NA,NA,next,Wed Aug 25 2021 11:18:17 GMT+0200 (Mitteleuropäische Sommerzeit),1629883097417,dilemma_decision1,2
2922,NA,NA,24,false,Hochschulabschluss,283,Weiblich,false,Deutsch,NA,NA,NA,next,Wed Aug 25 2021 11:18:17 GMT+0200 (Mitteleuropäische Sommerzeit),1629883097417,dilemma_decision1,3
2922,NA,NA,24,false,Hochschulabschluss,283,Weiblich,false,Deutsch,NA,NA,NA,5,Wed Aug 25 2021 11:18:17 GMT+0200 (Mitteleuropäische Sommerzeit),1629883097417,dilemma_decision1,4
2922,NA,NA,24,false,Hochschulabschluss,283,Weiblich,false,Deutsch,NA,NA,NA,0,Wed Aug 25 2021 11:18:17 GMT+0200 (Mitteleuropäische Sommerzeit),1629883097417,dilemma_decision1,5
2922,,10557,24,NA,Hochschulabschluss,283,Weiblich,NA,Deutsch,Du musstest immer so schnell wie möglich antworten.,"Es ist irrelevant, wie lange du für deine Antworten benötigt hast.",Welche dieser Behauptungen über dieses Experiment ist wahr?,"Es ist irrelevant, wie lange du für deine Antworten benötigt hast.",Wed Aug 25 2021 11:18:17 GMT+0200 (Mitteleuropäische Sommerzeit),1629883097417,understanding_check,1
2922,,6145,24,NA,Hochschulabschluss,283,Weiblich,NA,Deutsch,Anfangs wurden dir mehrere Themen zur Auswahl gestellt.,Du konntest dir ein Dilemma aussuchen.,Welche dieser Behauptungen über dieses Experiment ist wahr?,Anfangs wurden dir mehrere Themen zur Auswahl gestellt.,Wed Aug 25 2021 11:18:17 GMT+0200 (Mitteleuropäische Sommerzeit),1629883097417,understanding_check,2
2922,,8043,24,NA,Hochschulabschluss,283,Weiblich,NA,Deutsch,Für die Durchführung dieses Experiments erhälst du eine Aufwandsentschädigung oder VP Stunden.,"Wir können dir leider keine Aufwandsentschädigung oder VP Stunden anbieten, sind dir aber sehr dankbar.",Welche dieser Behauptungen über dieses Experiment ist wahr?,"Wir können dir leider keine Aufwandsentschädigung oder VP Stunden anbieten, sind dir aber sehr dankbar.",Wed Aug 25 2021 11:18:17 GMT+0200 (Mitteleuropäische Sommerzeit),1629883097417,understanding_check,3
2922,NA,NA,24,NA,Hochschulabschluss,283,Weiblich,NA,Deutsch,NA,NA,NA,-3,Wed Aug 25 2021 11:18:17 GMT+0200 (Mitteleuropäische Sommerzeit),1629883097417,group_ident,1
2922,NA,NA,24,NA,Hochschulabschluss,283,Weiblich,NA,Deutsch,NA,NA,NA,3,Wed Aug 25 2021 11:18:17 GMT+0200 (Mitteleuropäische Sommerzeit),1629883097417,group_ident,2
2921,NA,NA,20,NA,Abitur,283,Weiblich,NA,Deutsch,NA,NA,NA,5,Wed Aug 25 2021 11:38:38 GMT+0200 (Mitteleuropäische Sommerzeit),1629884318647,topic_choice,1
2921,NA,NA,20,NA,Abitur,283,Weiblich,NA,Deutsch,NA,NA,NA,-3,Wed Aug 25 2021 11:38:38 GMT+0200 (Mitteleuropäische Sommerzeit),1629884318647,statement_rating,1
2921,NA,NA,20,true,Abitur,283,Weiblich,true,Deutsch,NA,NA,NA,next,Wed Aug 25 2021 11:38:38 GMT+0200 (Mitteleuropäische Sommerzeit),1629884318647,dilemma_decision2,1
2921,NA,NA,20,true,Abitur,283,Weiblich,true,Deutsch,NA,NA,NA,next,Wed Aug 25 2021 11:38:38 GMT+0200 (Mitteleuropäische Sommerzeit),1629884318647,dilemma_decision2,2
2921,NA,NA,20,true,Abitur,283,Weiblich,true,Deutsch,NA,NA,NA,next,Wed Aug 25 2021 11:38:38 GMT+0200 (Mitteleuropäische Sommerzeit),1629884318647,dilemma_decision2,3
2921,NA,NA,20,true,Abitur,283,Weiblich,true,Deutsch,NA,NA,NA,3,Wed Aug 25 2021 11:38:38 GMT+0200 (Mitteleuropäische Sommerzeit),1629884318647,dilemma_decision2,4
2921,NA,NA,20,true,Abitur,283,Weiblich,true,Deutsch,NA,NA,NA,-1,Wed Aug 25 2021 11:38:38 GMT+0200 (Mitteleuropäische Sommerzeit),1629884318647,dilemma_decision2,5
2921,NA,NA,20,true,Abitur,283,Weiblich,true,Deutsch,NA,NA,NA,next,Wed Aug 25 2021 11:38:38 GMT+0200 (Mitteleuropäische Sommerzeit),1629884318647,dilemma_decision1,1
2921,NA,NA,20,true,Abitur,283,Weiblich,true,Deutsch,NA,NA,NA,next,Wed Aug 25 2021 11:38:38 GMT+0200 (Mitteleuropäische Sommerzeit),1629884318647,dilemma_decision1,2
2921,NA,NA,20,true,Abitur,283,Weiblich,true,Deutsch,NA,NA,NA,next,Wed Aug 25 2021 11:38:38 GMT+0200 (Mitteleuropäische Sommerzeit),1629884318647,dilemma_decision1,3
2921,NA,NA,20,true,Abitur,283,Weiblich,true,Deutsch,NA,NA,NA,4,Wed Aug 25 2021 11:38:38 GMT+0200 (Mitteleuropäische Sommerzeit),1629884318647,dilemma_decision1,4
2921,NA,NA,20,true,Abitur,283,Weiblich,true,Deutsch,NA,NA,NA,-3,Wed Aug 25 2021 11:38:38 GMT+0200 (Mitteleuropäische Sommerzeit),1629884318647,dilemma_decision1,5
2921,,20191,20,NA,Abitur,283,Weiblich,NA,Deutsch,Du musstest immer so schnell wie möglich antworten.,"Es ist irrelevant, wie lange du für deine Antworten benötigt hast.",Welche dieser Behauptungen über dieses Experiment ist wahr?,Du musstest immer so schnell wie möglich antworten.,Wed Aug 25 2021 11:38:38 GMT+0200 (Mitteleuropäische Sommerzeit),1629884318647,understanding_check,1
2921,,7929,20,NA,Abitur,283,Weiblich,NA,Deutsch,Anfangs wurden dir mehrere Themen zur Auswahl gestellt.,Du konntest dir ein Dilemma aussuchen.,Welche dieser Behauptungen über dieses Experiment ist wahr?,Anfangs wurden dir mehrere Themen zur Auswahl gestellt.,Wed Aug 25 2021 11:38:38 GMT+0200 (Mitteleuropäische Sommerzeit),1629884318647,understanding_check,2
2921,,9629,20,NA,Abitur,283,Weiblich,NA,Deutsch,Für die Durchführung dieses Experiments erhälst du eine Aufwandsentschädigung oder VP Stunden.,"Wir können dir leider keine Aufwandsentschädigung oder VP Stunden anbieten, sind dir aber sehr dankbar.",Welche dieser Behauptungen über dieses Experiment ist wahr?,"Wir können dir leider keine Aufwandsentschädigung oder VP Stunden anbieten, sind dir aber sehr dankbar.",Wed Aug 25 2021 11:38:38 GMT+0200 (Mitteleuropäische Sommerzeit),1629884318647,understanding_check,3
2921,NA,NA,20,NA,Abitur,283,Weiblich,NA,Deutsch,NA,NA,NA,-3,Wed Aug 25 2021 11:38:38 GMT+0200 (Mitteleuropäische Sommerzeit),1629884318647,group_ident,1
2921,NA,NA,20,NA,Abitur,283,Weiblich,NA,Deutsch,NA,NA,NA,2,Wed Aug 25 2021 11:38:38 GMT+0200 (Mitteleuropäische Sommerzeit),1629884318647,group_ident,2
2920,NA,NA,20,NA,Abitur,283,Weiblich,NA,Deutsch,NA,NA,NA,0,Wed Aug 25 2021 11:34:50 GMT+0200 (CEST),1629884090371,topic_choice,1
2920,NA,NA,20,NA,Abitur,283,Weiblich,NA,Deutsch,NA,NA,NA,4,Wed Aug 25 2021 11:34:50 GMT+0200 (CEST),1629884090371,statement_rating,1
2920,NA,NA,20,false,Abitur,283,Weiblich,true,Deutsch,NA,NA,NA,next,Wed Aug 25 2021 11:34:50 GMT+0200 (CEST),1629884090371,dilemma_decision1,1
2920,NA,NA,20,false,Abitur,283,Weiblich,true,Deutsch,NA,NA,NA,next,Wed Aug 25 2021 11:34:50 GMT+0200 (CEST),1629884090371,dilemma_decision1,2
2920,NA,NA,20,false,Abitur,283,Weiblich,true,Deutsch,NA,NA,NA,next,Wed Aug 25 2021 11:34:50 GMT+0200 (CEST),1629884090371,dilemma_decision1,3
2920,NA,NA,20,false,Abitur,283,Weiblich,true,Deutsch,NA,NA,NA,3,Wed Aug 25 2021 11:34:50 GMT+0200 (CEST),1629884090371,dilemma_decision1,4
2920,NA,NA,20,false,Abitur,283,Weiblich,true,Deutsch,NA,NA,NA,-3,Wed Aug 25 2021 11:34:50 GMT+0200 (CEST),1629884090371,dilemma_decision1,5
2920,NA,NA,20,false,Abitur,283,Weiblich,false,Deutsch,NA,NA,NA,next,Wed Aug 25 2021 11:34:50 GMT+0200 (CEST),1629884090371,dilemma_decision2,1
2920,NA,NA,20,false,Abitur,283,Weiblich,false,Deutsch,NA,NA,NA,next,Wed Aug 25 2021 11:34:50 GMT+0200 (CEST),1629884090371,dilemma_decision2,2
2920,NA,NA,20,false,Abitur,283,Weiblich,false,Deutsch,NA,NA,NA,next,Wed Aug 25 2021 11:34:50 GMT+0200 (CEST),1629884090371,dilemma_decision2,3
2920,NA,NA,20,false,Abitur,283,Weiblich,false,Deutsch,NA,NA,NA,3,Wed Aug 25 2021 11:34:50 GMT+0200 (CEST),1629884090371,dilemma_decision2,4
2920,NA,NA,20,false,Abitur,283,Weiblich,false,Deutsch,NA,NA,NA,-3,Wed Aug 25 2021 11:34:50 GMT+0200 (CEST),1629884090371,dilemma_decision2,5
2920,,7292,20,NA,Abitur,283,Weiblich,NA,Deutsch,Du musstest immer so schnell wie möglich antworten.,"Es ist irrelevant, wie lange du für deine Antworten benötigt hast.",Welche dieser Behauptungen über dieses Experiment ist wahr?,"Es ist irrelevant, wie lange du für deine Antworten benötigt hast.",Wed Aug 25 2021 11:34:50 GMT+0200 (CEST),1629884090371,understanding_check,1
2920,,5768,20,NA,Abitur,283,Weiblich,NA,Deutsch,Anfangs wurden dir mehrere Themen zur Auswahl gestellt.,Du konntest dir ein Dilemma aussuchen.,Welche dieser Behauptungen über dieses Experiment ist wahr?,Anfangs wurden dir mehrere Themen zur Auswahl gestellt.,Wed Aug 25 2021 11:34:50 GMT+0200 (CEST),1629884090371,understanding_check,2
2920,,10457,20,NA,Abitur,283,Weiblich,NA,Deutsch,Für die Durchführung dieses Experiments erhälst du eine Aufwandsentschädigung oder VP Stunden.,"Wir können dir leider keine Aufwandsentschädigung oder VP Stunden anbieten, sind dir aber sehr dankbar.",Welche dieser Behauptungen über dieses Experiment ist wahr?,"Wir können dir leider keine Aufwandsentschädigung oder VP Stunden anbieten, sind dir aber sehr dankbar.",Wed Aug 25 2021 11:34:50 GMT+0200 (CEST),1629884090371,understanding_check,3
2920,NA,NA,20,NA,Abitur,283,Weiblich,NA,Deutsch,NA,NA,NA,2,Wed Aug 25 2021 11:34:50 GMT+0200 (CEST),1629884090371,group_ident,1
2920,NA,NA,20,NA,Abitur,283,Weiblich,NA,Deutsch,NA,NA,NA,-3,Wed Aug 25 2021 11:34:50 GMT+0200 (CEST),1629884090371,group_ident,2
2919,NA,NA,20,NA,Abitur,283,Weiblich,NA,Deutsch,NA,NA,NA,7,Wed Aug 25 2021 11:26:25 GMT+0200 (Mitteleuropäische Sommerzeit),1629883585329,topic_choice,1
2919,NA,NA,20,NA,Abitur,283,Weiblich,NA,Deutsch,NA,NA,NA,5,Wed Aug 25 2021 11:26:25 GMT+0200 (Mitteleuropäische Sommerzeit),1629883585329,statement_rating,1
2919,NA,NA,20,true,Abitur,283,Weiblich,false,Deutsch,NA,NA,NA,next,Wed Aug 25 2021 11:26:25 GMT+0200 (Mitteleuropäische Sommerzeit),1629883585329,dilemma_decision2,1
2919,NA,NA,20,true,Abitur,283,Weiblich,false,Deutsch,NA,NA,NA,next,Wed Aug 25 2021 11:26:25 GMT+0200 (Mitteleuropäische Sommerzeit),1629883585329,dilemma_decision2,2
2919,NA,NA,20,true,Abitur,283,Weiblich,false,Deutsch,NA,NA,NA,next,Wed Aug 25 2021 11:26:25 GMT+0200 (Mitteleuropäische Sommerzeit),1629883585329,dilemma_decision2,3
2919,NA,NA,20,true,Abitur,283,Weiblich,false,Deutsch,NA,NA,NA,3,Wed Aug 25 2021 11:26:25 GMT+0200 (Mitteleuropäische Sommerzeit),1629883585329,dilemma_decision2,4
2919,NA,NA,20,true,Abitur,283,Weiblich,false,Deutsch,NA,NA,NA,-1,Wed Aug 25 2021 11:26:25 GMT+0200 (Mitteleuropäische Sommerzeit),1629883585329,dilemma_decision2,5
2919,NA,NA,20,true,Abitur,283,Weiblich,false,Deutsch,NA,NA,NA,next,Wed Aug 25 2021 11:26:25 GMT+0200 (Mitteleuropäische Sommerzeit),1629883585329,dilemma_decision1,1
2919,NA,NA,20,true,Abitur,283,Weiblich,false,Deutsch,NA,NA,NA,next,Wed Aug 25 2021 11:26:25 GMT+0200 (Mitteleuropäische Sommerzeit),1629883585329,dilemma_decision1,2
2919,NA,NA,20,true,Abitur,283,Weiblich,false,Deutsch,NA,NA,NA,next,Wed Aug 25 2021 11:26:25 GMT+0200 (Mitteleuropäische Sommerzeit),1629883585329,dilemma_decision1,3
2919,NA,NA,20,true,Abitur,283,Weiblich,false,Deutsch,NA,NA,NA,4,Wed Aug 25 2021 11:26:25 GMT+0200 (Mitteleuropäische Sommerzeit),1629883585329,dilemma_decision1,4
2919,NA,NA,20,true,Abitur,283,Weiblich,false,Deutsch,NA,NA,NA,-3,Wed Aug 25 2021 11:26:25 GMT+0200 (Mitteleuropäische Sommerzeit),1629883585329,dilemma_decision1,5
2919,,8514,20,NA,Abitur,283,Weiblich,NA,Deutsch,Du musstest immer so schnell wie möglich antworten.,"Es ist irrelevant, wie lange du für deine Antworten benötigt hast.",Welche dieser Behauptungen über dieses Experiment ist wahr?,"Es ist irrelevant, wie lange du für deine Antworten benötigt hast.",Wed Aug 25 2021 11:26:25 GMT+0200 (Mitteleuropäische Sommerzeit),1629883585329,understanding_check,1
2919,,8777,20,NA,Abitur,283,Weiblich,NA,Deutsch,Anfangs wurden dir mehrere Themen zur Auswahl gestellt.,Du konntest dir ein Dilemma aussuchen.,Welche dieser Behauptungen über dieses Experiment ist wahr?,Anfangs wurden dir mehrere Themen zur Auswahl gestellt.,Wed Aug 25 2021 11:26:25 GMT+0200 (Mitteleuropäische Sommerzeit),1629883585329,understanding_check,2
2919,,6401,20,NA,Abitur,283,Weiblich,NA,Deutsch,Für die Durchführung dieses Experiments erhälst du eine Aufwandsentschädigung oder VP Stunden.,"Wir können dir leider keine Aufwandsentschädigung oder VP Stunden anbieten, sind dir aber sehr dankbar.",Welche dieser Behauptungen über dieses Experiment ist wahr?,"Wir können dir leider keine Aufwandsentschädigung oder VP Stunden anbieten, sind dir aber sehr dankbar.",Wed Aug 25 2021 11:26:25 GMT+0200 (Mitteleuropäische Sommerzeit),1629883585329,understanding_check,3
2919,NA,NA,20,NA,Abitur,283,Weiblich,NA,Deutsch,NA,NA,NA,3,Wed Aug 25 2021 11:26:25 GMT+0200 (Mitteleuropäische Sommerzeit),1629883585329,group_ident,1
2919,NA,NA,20,NA,Abitur,283,Weiblich,NA,Deutsch,NA,NA,NA,-3,Wed Aug 25 2021 11:26:25 GMT+0200 (Mitteleuropäische Sommerzeit),1629883585329,group_ident,2
2917,NA,NA,20,NA,Abitur,283,Männlich,NA,Deutsch,NA,NA,NA,1,Wed Aug 25 2021 11:20:09 GMT+0200 (Mitteleuropäische Sommerzeit),1629883209764,topic_choice,1
2917,NA,NA,20,NA,Abitur,283,Männlich,NA,Deutsch,NA,NA,NA,3,Wed Aug 25 2021 11:20:09 GMT+0200 (Mitteleuropäische Sommerzeit),1629883209764,statement_rating,1
2917,NA,NA,20,true,Abitur,283,Männlich,true,Deutsch,NA,NA,NA,next,Wed Aug 25 2021 11:20:09 GMT+0200 (Mitteleuropäische Sommerzeit),1629883209764,dilemma_decision2,1
2917,NA,NA,20,true,Abitur,283,Männlich,true,Deutsch,NA,NA,NA,next,Wed Aug 25 2021 11:20:09 GMT+0200 (Mitteleuropäische Sommerzeit),1629883209764,dilemma_decision2,2
2917,NA,NA,20,true,Abitur,283,Männlich,true,Deutsch,NA,NA,NA,next,Wed Aug 25 2021 11:20:09 GMT+0200 (Mitteleuropäische Sommerzeit),1629883209764,dilemma_decision2,3
2917,NA,NA,20,true,Abitur,283,Männlich,true,Deutsch,NA,NA,NA,2,Wed Aug 25 2021 11:20:09 GMT+0200 (Mitteleuropäische Sommerzeit),1629883209764,dilemma_decision2,4
2917,NA,NA,20,true,Abitur,283,Männlich,true,Deutsch,NA,NA,NA,2,Wed Aug 25 2021 11:20:09 GMT+0200 (Mitteleuropäische Sommerzeit),1629883209764,dilemma_decision2,5
2917,NA,NA,20,true,Abitur,283,Männlich,true,Deutsch,NA,NA,NA,next,Wed Aug 25 2021 11:20:09 GMT+0200 (Mitteleuropäische Sommerzeit),1629883209764,dilemma_decision1,1
2917,NA,NA,20,true,Abitur,283,Männlich,true,Deutsch,NA,NA,NA,next,Wed Aug 25 2021 11:20:09 GMT+0200 (Mitteleuropäische Sommerzeit),1629883209764,dilemma_decision1,2
2917,NA,NA,20,true,Abitur,283,Männlich,true,Deutsch,NA,NA,NA,next,Wed Aug 25 2021 11:20:09 GMT+0200 (Mitteleuropäische Sommerzeit),1629883209764,dilemma_decision1,3
2917,NA,NA,20,true,Abitur,283,Männlich,true,Deutsch,NA,NA,NA,5,Wed Aug 25 2021 11:20:09 GMT+0200 (Mitteleuropäische Sommerzeit),1629883209764,dilemma_decision1,4
2917,NA,NA,20,true,Abitur,283,Männlich,true,Deutsch,NA,NA,NA,2,Wed Aug 25 2021 11:20:09 GMT+0200 (Mitteleuropäische Sommerzeit),1629883209764,dilemma_decision1,5
2917,,7582,20,NA,Abitur,283,Männlich,NA,Deutsch,Du musstest immer so schnell wie möglich antworten.,"Es ist irrelevant, wie lange du für deine Antworten benötigt hast.",Welche dieser Behauptungen über dieses Experiment ist wahr?,"Es ist irrelevant, wie lange du für deine Antworten benötigt hast.",Wed Aug 25 2021 11:20:09 GMT+0200 (Mitteleuropäische Sommerzeit),1629883209764,understanding_check,1
2917,,4723,20,NA,Abitur,283,Männlich,NA,Deutsch,Anfangs wurden dir mehrere Themen zur Auswahl gestellt.,Du konntest dir ein Dilemma aussuchen.,Welche dieser Behauptungen über dieses Experiment ist wahr?,Anfangs wurden dir mehrere Themen zur Auswahl gestellt.,Wed Aug 25 2021 11:20:09 GMT+0200 (Mitteleuropäische Sommerzeit),1629883209764,understanding_check,2
2917,,7211,20,NA,Abitur,283,Männlich,NA,Deutsch,Für die Durchführung dieses Experiments erhälst du eine Aufwandsentschädigung oder VP Stunden.,"Wir können dir leider keine Aufwandsentschädigung oder VP Stunden anbieten, sind dir aber sehr dankbar.",Welche dieser Behauptungen über dieses Experiment ist wahr?,"Wir können dir leider keine Aufwandsentschädigung oder VP Stunden anbieten, sind dir aber sehr dankbar.",Wed Aug 25 2021 11:20:09 GMT+0200 (Mitteleuropäische Sommerzeit),1629883209764,understanding_check,3
2917,NA,NA,20,NA,Abitur,283,Männlich,NA,Deutsch,NA,NA,NA,3,Wed Aug 25 2021 11:20:09 GMT+0200 (Mitteleuropäische Sommerzeit),1629883209764,group_ident,1
2917,NA,NA,20,NA,Abitur,283,Männlich,NA,Deutsch,NA,NA,NA,-3,Wed Aug 25 2021 11:20:09 GMT+0200 (Mitteleuropäische Sommerzeit),1629883209764,group_ident,2
2916,NA,NA,20,NA,Abitur,283,Weiblich,NA,Deutsch,NA,NA,NA,7,Wed Aug 25 2021 11:16:57 GMT+0200 (Mitteleuropäische Sommerzeit),1629883017269,topic_choice,1
2916,NA,NA,20,NA,Abitur,283,Weiblich,NA,Deutsch,NA,NA,NA,5,Wed Aug 25 2021 11:16:57 GMT+0200 (Mitteleuropäische Sommerzeit),1629883017269,statement_rating,1
2916,NA,NA,20,true,Abitur,283,Weiblich,false,Deutsch,NA,NA,NA,next,Wed Aug 25 2021 11:16:57 GMT+0200 (Mitteleuropäische Sommerzeit),1629883017269,dilemma_decision2,1
2916,NA,NA,20,true,Abitur,283,Weiblich,false,Deutsch,NA,NA,NA,next,Wed Aug 25 2021 11:16:57 GMT+0200 (Mitteleuropäische Sommerzeit),1629883017269,dilemma_decision2,2
2916,NA,NA,20,true,Abitur,283,Weiblich,false,Deutsch,NA,NA,NA,next,Wed Aug 25 2021 11:16:57 GMT+0200 (Mitteleuropäische Sommerzeit),1629883017269,dilemma_decision2,3
2916,NA,NA,20,true,Abitur,283,Weiblich,false,Deutsch,NA,NA,NA,3,Wed Aug 25 2021 11:16:57 GMT+0200 (Mitteleuropäische Sommerzeit),1629883017269,dilemma_decision2,4
2916,NA,NA,20,true,Abitur,283,Weiblich,false,Deutsch,NA,NA,NA,-2,Wed Aug 25 2021 11:16:57 GMT+0200 (Mitteleuropäische Sommerzeit),1629883017269,dilemma_decision2,5
2916,NA,NA,20,true,Abitur,283,Weiblich,false,Deutsch,NA,NA,NA,next,Wed Aug 25 2021 11:16:57 GMT+0200 (Mitteleuropäische Sommerzeit),1629883017269,dilemma_decision1,1
2916,NA,NA,20,true,Abitur,283,Weiblich,false,Deutsch,NA,NA,NA,next,Wed Aug 25 2021 11:16:57 GMT+0200 (Mitteleuropäische Sommerzeit),1629883017269,dilemma_decision1,2
2916,NA,NA,20,true,Abitur,283,Weiblich,false,Deutsch,NA,NA,NA,next,Wed Aug 25 2021 11:16:57 GMT+0200 (Mitteleuropäische Sommerzeit),1629883017269,dilemma_decision1,3
2916,NA,NA,20,true,Abitur,283,Weiblich,false,Deutsch,NA,NA,NA,3,Wed Aug 25 2021 11:16:57 GMT+0200 (Mitteleuropäische Sommerzeit),1629883017269,dilemma_decision1,4
2916,NA,NA,20,true,Abitur,283,Weiblich,false,Deutsch,NA,NA,NA,-1,Wed Aug 25 2021 11:16:57 GMT+0200 (Mitteleuropäische Sommerzeit),1629883017269,dilemma_decision1,5
2916,,6899,20,NA,Abitur,283,Weiblich,NA,Deutsch,Du musstest immer so schnell wie möglich antworten.,"Es ist irrelevant, wie lange du für deine Antworten benötigt hast.",Welche dieser Behauptungen über dieses Experiment ist wahr?,"Es ist irrelevant, wie lange du für deine Antworten benötigt hast.",Wed Aug 25 2021 11:16:57 GMT+0200 (Mitteleuropäische Sommerzeit),1629883017269,understanding_check,1
2916,,10499,20,NA,Abitur,283,Weiblich,NA,Deutsch,Anfangs wurden dir mehrere Themen zur Auswahl gestellt.,Du konntest dir ein Dilemma aussuchen.,Welche dieser Behauptungen über dieses Experiment ist wahr?,Anfangs wurden dir mehrere Themen zur Auswahl gestellt.,Wed Aug 25 2021 11:16:57 GMT+0200 (Mitteleuropäische Sommerzeit),1629883017269,understanding_check,2
2916,,9327,20,NA,Abitur,283,Weiblich,NA,Deutsch,Für die Durchführung dieses Experiments erhälst du eine Aufwandsentschädigung oder VP Stunden.,"Wir können dir leider keine Aufwandsentschädigung oder VP Stunden anbieten, sind dir aber sehr dankbar.",Welche dieser Behauptungen über dieses Experiment ist wahr?,"Wir können dir leider keine Aufwandsentschädigung oder VP Stunden anbieten, sind dir aber sehr dankbar.",Wed Aug 25 2021 11:16:57 GMT+0200 (Mitteleuropäische Sommerzeit),1629883017269,understanding_check,3
2916,NA,NA,20,NA,Abitur,283,Weiblich,NA,Deutsch,NA,NA,NA,3,Wed Aug 25 2021 11:16:57 GMT+0200 (Mitteleuropäische Sommerzeit),1629883017269,group_ident,1
2916,NA,NA,20,NA,Abitur,283,Weiblich,NA,Deutsch,NA,NA,NA,-3,Wed Aug 25 2021 11:16:57 GMT+0200 (Mitteleuropäische Sommerzeit),1629883017269,group_ident,2
2914,NA,NA,21,NA,Abitur,283,Männlich,NA,Deutsch,NA,NA,NA,6,Wed Aug 25 2021 10:14:01 GMT+0200 (CEST),1629879241522,topic_choice,1
2914,NA,NA,21,NA,Abitur,283,Männlich,NA,Deutsch,NA,NA,NA,5,Wed Aug 25 2021 10:14:01 GMT+0200 (CEST),1629879241522,statement_rating,1
2914,NA,NA,21,false,Abitur,283,Männlich,false,Deutsch,NA,NA,NA,next,Wed Aug 25 2021 10:14:01 GMT+0200 (CEST),1629879241522,dilemma_decision2,1
2914,NA,NA,21,false,Abitur,283,Männlich,false,Deutsch,NA,NA,NA,next,Wed Aug 25 2021 10:14:01 GMT+0200 (CEST),1629879241522,dilemma_decision2,2
2914,NA,NA,21,false,Abitur,283,Männlich,false,Deutsch,NA,NA,NA,next,Wed Aug 25 2021 10:14:01 GMT+0200 (CEST),1629879241522,dilemma_decision2,3
2914,NA,NA,21,false,Abitur,283,Männlich,false,Deutsch,NA,NA,NA,1,Wed Aug 25 2021 10:14:01 GMT+0200 (CEST),1629879241522,dilemma_decision2,4
2914,NA,NA,21,false,Abitur,283,Männlich,false,Deutsch,NA,NA,NA,0,Wed Aug 25 2021 10:14:01 GMT+0200 (CEST),1629879241522,dilemma_decision2,5
2914,NA,NA,21,false,Abitur,283,Männlich,false,Deutsch,NA,NA,NA,next,Wed Aug 25 2021 10:14:01 GMT+0200 (CEST),1629879241522,dilemma_decision1,1
2914,NA,NA,21,false,Abitur,283,Männlich,false,Deutsch,NA,NA,NA,next,Wed Aug 25 2021 10:14:01 GMT+0200 (CEST),1629879241522,dilemma_decision1,2
2914,NA,NA,21,false,Abitur,283,Männlich,false,Deutsch,NA,NA,NA,next,Wed Aug 25 2021 10:14:01 GMT+0200 (CEST),1629879241522,dilemma_decision1,3
2914,NA,NA,21,false,Abitur,283,Männlich,false,Deutsch,NA,NA,NA,6,Wed Aug 25 2021 10:14:01 GMT+0200 (CEST),1629879241522,dilemma_decision1,4
2914,NA,NA,21,false,Abitur,283,Männlich,false,Deutsch,NA,NA,NA,3,Wed Aug 25 2021 10:14:01 GMT+0200 (CEST),1629879241522,dilemma_decision1,5
2914,,2150547,21,NA,Abitur,283,Männlich,NA,Deutsch,Du musstest immer so schnell wie möglich antworten.,"Es ist irrelevant, wie lange du für deine Antworten benötigt hast.",Welche dieser Behauptungen über dieses Experiment ist wahr?,"Es ist irrelevant, wie lange du für deine Antworten benötigt hast.",Wed Aug 25 2021 10:14:01 GMT+0200 (CEST),1629879241522,understanding_check,1
2914,,6714,21,NA,Abitur,283,Männlich,NA,Deutsch,Anfangs wurden dir mehrere Themen zur Auswahl gestellt.,Du konntest dir ein Dilemma aussuchen.,Welche dieser Behauptungen über dieses Experiment ist wahr?,Anfangs wurden dir mehrere Themen zur Auswahl gestellt.,Wed Aug 25 2021 10:14:01 GMT+0200 (CEST),1629879241522,understanding_check,2
2914,,9485,21,NA,Abitur,283,Männlich,NA,Deutsch,Für die Durchführung dieses Experiments erhälst du eine Aufwandsentschädigung oder VP Stunden.,"Wir können dir leider keine Aufwandsentschädigung oder VP Stunden anbieten, sind dir aber sehr dankbar.",Welche dieser Behauptungen über dieses Experiment ist wahr?,"Wir können dir leider keine Aufwandsentschädigung oder VP Stunden anbieten, sind dir aber sehr dankbar.",Wed Aug 25 2021 10:14:01 GMT+0200 (CEST),1629879241522,understanding_check,3
2914,NA,NA,21,NA,Abitur,283,Männlich,NA,Deutsch,NA,NA,NA,3,Wed Aug 25 2021 10:14:01 GMT+0200 (CEST),1629879241522,group_ident,1
2914,NA,NA,21,NA,Abitur,283,Männlich,NA,Deutsch,NA,NA,NA,-3,Wed Aug 25 2021 10:14:01 GMT+0200 (CEST),1629879241522,group_ident,2
2913,NA,NA,22,NA,Hochschulabschluss,283,Männlich,NA,Deutsch,NA,NA,NA,1,Wed Aug 25 2021 10:48:15 GMT+0200 (Mitteleuropäische Sommerzeit),1629881295222,topic_choice,1
2913,NA,NA,22,NA,Hochschulabschluss,283,Männlich,NA,Deutsch,NA,NA,NA,2,Wed Aug 25 2021 10:48:15 GMT+0200 (Mitteleuropäische Sommerzeit),1629881295222,statement_rating,1
2913,NA,NA,22,true,Hochschulabschluss,283,Männlich,false,Deutsch,NA,NA,NA,next,Wed Aug 25 2021 10:48:15 GMT+0200 (Mitteleuropäische Sommerzeit),1629881295222,dilemma_decision2,1
2913,NA,NA,22,true,Hochschulabschluss,283,Männlich,false,Deutsch,NA,NA,NA,next,Wed Aug 25 2021 10:48:15 GMT+0200 (Mitteleuropäische Sommerzeit),1629881295222,dilemma_decision2,2
2913,NA,NA,22,true,Hochschulabschluss,283,Männlich,false,Deutsch,NA,NA,NA,next,Wed Aug 25 2021 10:48:15 GMT+0200 (Mitteleuropäische Sommerzeit),1629881295222,dilemma_decision2,3
2913,NA,NA,22,true,Hochschulabschluss,283,Männlich,false,Deutsch,NA,NA,NA,1,Wed Aug 25 2021 10:48:15 GMT+0200 (Mitteleuropäische Sommerzeit),1629881295222,dilemma_decision2,4
2913,NA,NA,22,true,Hochschulabschluss,283,Männlich,false,Deutsch,NA,NA,NA,2,Wed Aug 25 2021 10:48:15 GMT+0200 (Mitteleuropäische Sommerzeit),1629881295222,dilemma_decision2,5
2913,NA,NA,22,true,Hochschulabschluss,283,Männlich,false,Deutsch,NA,NA,NA,next,Wed Aug 25 2021 10:48:15 GMT+0200 (Mitteleuropäische Sommerzeit),1629881295222,dilemma_decision1,1
2913,NA,NA,22,true,Hochschulabschluss,283,Männlich,false,Deutsch,NA,NA,NA,next,Wed Aug 25 2021 10:48:15 GMT+0200 (Mitteleuropäische Sommerzeit),1629881295222,dilemma_decision1,2
2913,NA,NA,22,true,Hochschulabschluss,283,Männlich,false,Deutsch,NA,NA,NA,next,Wed Aug 25 2021 10:48:15 GMT+0200 (Mitteleuropäische Sommerzeit),1629881295222,dilemma_decision1,3
2913,NA,NA,22,true,Hochschulabschluss,283,Männlich,false,Deutsch,NA,NA,NA,4,Wed Aug 25 2021 10:48:15 GMT+0200 (Mitteleuropäische Sommerzeit),1629881295222,dilemma_decision1,4
2913,NA,NA,22,true,Hochschulabschluss,283,Männlich,false,Deutsch,NA,NA,NA,-2,Wed Aug 25 2021 10:48:15 GMT+0200 (Mitteleuropäische Sommerzeit),1629881295222,dilemma_decision1,5
2913,,6733,22,NA,Hochschulabschluss,283,Männlich,NA,Deutsch,Du musstest immer so schnell wie möglich antworten.,"Es ist irrelevant, wie lange du für deine Antworten benötigt hast.",Welche dieser Behauptungen über dieses Experiment ist wahr?,"Es ist irrelevant, wie lange du für deine Antworten benötigt hast.",Wed Aug 25 2021 10:48:15 GMT+0200 (Mitteleuropäische Sommerzeit),1629881295222,understanding_check,1
2913,,4519,22,NA,Hochschulabschluss,283,Männlich,NA,Deutsch,Anfangs wurden dir mehrere Themen zur Auswahl gestellt.,Du konntest dir ein Dilemma aussuchen.,Welche dieser Behauptungen über dieses Experiment ist wahr?,Anfangs wurden dir mehrere Themen zur Auswahl gestellt.,Wed Aug 25 2021 10:48:15 GMT+0200 (Mitteleuropäische Sommerzeit),1629881295222,understanding_check,2
2913,,6701,22,NA,Hochschulabschluss,283,Männlich,NA,Deutsch,Für die Durchführung dieses Experiments erhälst du eine Aufwandsentschädigung oder VP Stunden.,"Wir können dir leider keine Aufwandsentschädigung oder VP Stunden anbieten, sind dir aber sehr dankbar.",Welche dieser Behauptungen über dieses Experiment ist wahr?,"Wir können dir leider keine Aufwandsentschädigung oder VP Stunden anbieten, sind dir aber sehr dankbar.",Wed Aug 25 2021 10:48:15 GMT+0200 (Mitteleuropäische Sommerzeit),1629881295222,understanding_check,3
2913,NA,NA,22,NA,Hochschulabschluss,283,Männlich,NA,Deutsch,NA,NA,NA,1,Wed Aug 25 2021 10:48:15 GMT+0200 (Mitteleuropäische Sommerzeit),1629881295222,group_ident,1
2913,NA,NA,22,NA,Hochschulabschluss,283,Männlich,NA,Deutsch,NA,NA,NA,1,Wed Aug 25 2021 10:48:15 GMT+0200 (Mitteleuropäische Sommerzeit),1629881295222,group_ident,2
2911,NA,NA,23,NA,Hochschulabschluss,283,Männlich,NA,Deutsch,NA,NA,NA,3,Wed Aug 25 2021 10:15:01 GMT+0200 (Mitteleuropäische Sommerzeit),1629879301332,topic_choice,1
2911,NA,NA,23,NA,Hochschulabschluss,283,Männlich,NA,Deutsch,NA,NA,NA,-4,Wed Aug 25 2021 10:15:01 GMT+0200 (Mitteleuropäische Sommerzeit),1629879301332,statement_rating,1
2911,NA,NA,23,false,Hochschulabschluss,283,Männlich,false,Deutsch,NA,NA,NA,next,Wed Aug 25 2021 10:15:01 GMT+0200 (Mitteleuropäische Sommerzeit),1629879301332,dilemma_decision1,1
2911,NA,NA,23,false,Hochschulabschluss,283,Männlich,false,Deutsch,NA,NA,NA,next,Wed Aug 25 2021 10:15:01 GMT+0200 (Mitteleuropäische Sommerzeit),1629879301332,dilemma_decision1,2
2911,NA,NA,23,false,Hochschulabschluss,283,Männlich,false,Deutsch,NA,NA,NA,next,Wed Aug 25 2021 10:15:01 GMT+0200 (Mitteleuropäische Sommerzeit),1629879301332,dilemma_decision1,3
2911,NA,NA,23,false,Hochschulabschluss,283,Männlich,false,Deutsch,NA,NA,NA,6,Wed Aug 25 2021 10:15:01 GMT+0200 (Mitteleuropäische Sommerzeit),1629879301332,dilemma_decision1,4
2911,NA,NA,23,false,Hochschulabschluss,283,Männlich,false,Deutsch,NA,NA,NA,2,Wed Aug 25 2021 10:15:01 GMT+0200 (Mitteleuropäische Sommerzeit),1629879301332,dilemma_decision1,5
2911,NA,NA,23,false,Hochschulabschluss,283,Männlich,false,Deutsch,NA,NA,NA,next,Wed Aug 25 2021 10:15:01 GMT+0200 (Mitteleuropäische Sommerzeit),1629879301332,dilemma_decision2,1
2911,NA,NA,23,false,Hochschulabschluss,283,Männlich,false,Deutsch,NA,NA,NA,next,Wed Aug 25 2021 10:15:01 GMT+0200 (Mitteleuropäische Sommerzeit),1629879301332,dilemma_decision2,2
2911,NA,NA,23,false,Hochschulabschluss,283,Männlich,false,Deutsch,NA,NA,NA,next,Wed Aug 25 2021 10:15:01 GMT+0200 (Mitteleuropäische Sommerzeit),1629879301332,dilemma_decision2,3
2911,NA,NA,23,false,Hochschulabschluss,283,Männlich,false,Deutsch,NA,NA,NA,6,Wed Aug 25 2021 10:15:01 GMT+0200 (Mitteleuropäische Sommerzeit),1629879301332,dilemma_decision2,4
2911,NA,NA,23,false,Hochschulabschluss,283,Männlich,false,Deutsch,NA,NA,NA,2,Wed Aug 25 2021 10:15:01 GMT+0200 (Mitteleuropäische Sommerzeit),1629879301332,dilemma_decision2,5
2911,,8137,23,NA,Hochschulabschluss,283,Männlich,NA,Deutsch,Du musstest immer so schnell wie möglich antworten.,"Es ist irrelevant, wie lange du für deine Antworten benötigt hast.",Welche dieser Behauptungen über dieses Experiment ist wahr?,"Es ist irrelevant, wie lange du für deine Antworten benötigt hast.",Wed Aug 25 2021 10:15:01 GMT+0200 (Mitteleuropäische Sommerzeit),1629879301332,understanding_check,1
2911,,12203,23,NA,Hochschulabschluss,283,Männlich,NA,Deutsch,Anfangs wurden dir mehrere Themen zur Auswahl gestellt.,Du konntest dir ein Dilemma aussuchen.,Welche dieser Behauptungen über dieses Experiment ist wahr?,Anfangs wurden dir mehrere Themen zur Auswahl gestellt.,Wed Aug 25 2021 10:15:01 GMT+0200 (Mitteleuropäische Sommerzeit),1629879301332,understanding_check,2
2911,,14031,23,NA,Hochschulabschluss,283,Männlich,NA,Deutsch,Für die Durchführung dieses Experiments erhälst du eine Aufwandsentschädigung oder VP Stunden.,"Wir können dir leider keine Aufwandsentschädigung oder VP Stunden anbieten, sind dir aber sehr dankbar.",Welche dieser Behauptungen über dieses Experiment ist wahr?,Für die Durchführung dieses Experiments erhälst du eine Aufwandsentschädigung oder VP Stunden.,Wed Aug 25 2021 10:15:01 GMT+0200 (Mitteleuropäische Sommerzeit),1629879301332,understanding_check,3
2911,NA,NA,23,NA,Hochschulabschluss,283,Männlich,NA,Deutsch,NA,NA,NA,-3,Wed Aug 25 2021 10:15:01 GMT+0200 (Mitteleuropäische Sommerzeit),1629879301332,group_ident,1
2911,NA,NA,23,NA,Hochschulabschluss,283,Männlich,NA,Deutsch,NA,NA,NA,2,Wed Aug 25 2021 10:15:01 GMT+0200 (Mitteleuropäische Sommerzeit),1629879301332,group_ident,2
2910,NA,NA,50,NA,Universitärer Abschluss,283,Männlich,NA,Deutsch,NA,NA,NA,4,Wed Aug 25 2021 10:02:39 GMT+0200 (CEST),1629878559007,topic_choice,1
2910,NA,NA,50,NA,Universitärer Abschluss,283,Männlich,NA,Deutsch,NA,NA,NA,5,Wed Aug 25 2021 10:02:39 GMT+0200 (CEST),1629878559007,statement_rating,1
2910,NA,NA,50,false,Universitärer Abschluss,283,Männlich,true,Deutsch,NA,NA,NA,next,Wed Aug 25 2021 10:02:39 GMT+0200 (CEST),1629878559007,dilemma_decision1,1
2910,NA,NA,50,false,Universitärer Abschluss,283,Männlich,true,Deutsch,NA,NA,NA,next,Wed Aug 25 2021 10:02:39 GMT+0200 (CEST),1629878559007,dilemma_decision1,2
2910,NA,NA,50,false,Universitärer Abschluss,283,Männlich,true,Deutsch,NA,NA,NA,next,Wed Aug 25 2021 10:02:39 GMT+0200 (CEST),1629878559007,dilemma_decision1,3
2910,NA,NA,50,false,Universitärer Abschluss,283,Männlich,true,Deutsch,NA,NA,NA,6,Wed Aug 25 2021 10:02:39 GMT+0200 (CEST),1629878559007,dilemma_decision1,4
2910,NA,NA,50,false,Universitärer Abschluss,283,Männlich,true,Deutsch,NA,NA,NA,3,Wed Aug 25 2021 10:02:39 GMT+0200 (CEST),1629878559007,dilemma_decision1,5
2910,NA,NA,50,false,Universitärer Abschluss,283,Männlich,false,Deutsch,NA,NA,NA,next,Wed Aug 25 2021 10:02:39 GMT+0200 (CEST),1629878559007,dilemma_decision2,1
2910,NA,NA,50,false,Universitärer Abschluss,283,Männlich,false,Deutsch,NA,NA,NA,next,Wed Aug 25 2021 10:02:39 GMT+0200 (CEST),1629878559007,dilemma_decision2,2
2910,NA,NA,50,false,Universitärer Abschluss,283,Männlich,false,Deutsch,NA,NA,NA,next,Wed Aug 25 2021 10:02:39 GMT+0200 (CEST),1629878559007,dilemma_decision2,3
2910,NA,NA,50,false,Universitärer Abschluss,283,Männlich,false,Deutsch,NA,NA,NA,1,Wed Aug 25 2021 10:02:39 GMT+0200 (CEST),1629878559007,dilemma_decision2,4
2910,NA,NA,50,false,Universitärer Abschluss,283,Männlich,false,Deutsch,NA,NA,NA,3,Wed Aug 25 2021 10:02:39 GMT+0200 (CEST),1629878559007,dilemma_decision2,5
2910,,6884,50,NA,Universitärer Abschluss,283,Männlich,NA,Deutsch,Du musstest immer so schnell wie möglich antworten.,"Es ist irrelevant, wie lange du für deine Antworten benötigt hast.",Welche dieser Behauptungen über dieses Experiment ist wahr?,"Es ist irrelevant, wie lange du für deine Antworten benötigt hast.",Wed Aug 25 2021 10:02:39 GMT+0200 (CEST),1629878559007,understanding_check,1
2910,,11509,50,NA,Universitärer Abschluss,283,Männlich,NA,Deutsch,Anfangs wurden dir mehrere Themen zur Auswahl gestellt.,Du konntest dir ein Dilemma aussuchen.,Welche dieser Behauptungen über dieses Experiment ist wahr?,Anfangs wurden dir mehrere Themen zur Auswahl gestellt.,Wed Aug 25 2021 10:02:39 GMT+0200 (CEST),1629878559007,understanding_check,2
